#timestamp [ns],w_RS_S_x [rad s^-1],w_RS_S_y [rad s^-1],w_RS_S_z [rad s^-1],a_RS_S_x [m s^-2],a_RS_S_y [m s^-2],a_RS_S_z [m s^-2]
1542883311685734208,-0.0231822356582,-0.0138560486957,-0.0566232763231,0.665588061523,6.77319649658,3.84029946289
1542883311688608448,-0.0123905055225,-0.00399693707004,-0.0528928004205,1.63284553223,8.95431420898,5.52581743164
1542883311693683264,-0.0187856052071,-0.0066615617834,-0.0534257255495,0.596156213379,7.59919606934,4.78600911865
1542883311698777024,-0.0178529862314,-0.00732771819457,-0.053159262985,0.469263525391,8.61912597656,4.16591088867
1542883311703895392,-0.0155880553648,-0.00399693707004,-0.0552909635007,0.438138903809,9.29429084473,4.63756861572
1542883311708956384,-0.0189188364893,-0.00692802434787,-0.0543583445251,0.902614025879,8.23605371094,4.51307012939
1542883311714065728,-0.0214502289891,-0.00413016835228,-0.0536921881139,0.531512768555,8.73404765625,4.08690223389
1542883311719159776,-0.019851455465,-0.0143889738247,-0.0566232763231,0.332794030762,8.6526447998,4.2185833252
1542883311724266784,-0.019318530336,-0.00492955604568,-0.0515604875982,1.10133276367,8.63827958984,5.62158549805
1542883311729400384,-0.0197182241827,-0.00466309348121,-0.0540918819606,1.15639940186,7.6255322876,4.60644399414
1542883311734725728,-0.0206508412957,-0.0129234297201,-0.054891269654,0.112527478027,8.78432589111,3.80199223633
1542883311740011200,-0.0174532923847,0.00559571199119,-0.0543583445251,1.09415015869,8.41561883545,4.9392380249
1542883311745145408,-0.0167871359736,-0.0133231235668,-0.0563568137586,0.950498059082,8.07803640137,4.45560928955
1542883311750216896,-0.0201179161668,0.00159877492115,-0.0563568137586,1.00317049561,7.94874951172,3.80678063965
1542883311755318496,-0.0159877482802,-0.0127901993692,-0.0546248070896,0.105344873047,7.60637867432,3.07894333496
1542883311760413280,-0.0201179161668,-0.00199846853502,-0.0542251132429,0.665588061523,8.2025348877,5.11640894775
1542883311765505664,-0.0173200611025,-0.010392036289,-0.0507611036301,1.25456166992,7.5896192627,5.42526096191
1542883311768395776,-0.0191852990538,-0.0110581927001,-0.0532924942672,0.780509741211,8.16662186279,5.8107274292
1542883311773523200,-0.0138560486957,-0.00439663091674,-0.0512940250337,1.40060797119,8.79629689941,5.92086070557
1542883311778716704,-0.0182526800781,-0.012124042958,-0.0519601814449,1.75255561523,9.04050546875,5.76523759766
1542883311783921888,-0.0142557425424,0.000399693730287,-0.04956202209,2.28406838379,8.9231895874,5.2217538208
1542883311789056064,-0.019851455465,-0.0114578865469,-0.0547580383718,0.76614453125,9.02853446045,4.00310517578
1542883311794466240,-0.0179862175137,-0.000266462477157,-0.0540918819606,1.47003981934,8.47068547363,4.9512090332
1542883311799619104,-0.0159877482802,-0.012124042958,-0.0522266440094,0.91458503418,7.83382783203,4.94163222656
1542883311804838752,-0.0221163854003,-0.00066615617834,-0.0542251132429,0.543483776855,7.32386287842,4.85304676514
1542883311809941824,-0.0113246552646,-0.0125237368047,-0.0520934127271,0.134075292969,10.1178962158,5.34625230713
1542883311815010432,-0.0189188364893,0.000532924954314,-0.0491623282433,0.656011254883,8.14986245117,5.52342322998
1542883311820077472,-0.0150551302359,-0.0113246552646,-0.0546248070896,0.794874951172,7.46512077637,4.22097752686
1542883311825213728,-0.0210505351424,-0.00439663091674,-0.0524931065738,0.14844050293,9.2176763916,3.89776030273
1542883311830354144,-0.0137228174135,-0.00506278686225,-0.0502281785011,0.866701000977,9.23443580322,5.1978118042
1542883311835682528,-0.0186523739249,-0.00266462471336,-0.0488958656788,1.12527478027,8.15943925781,5.15711037598
1542883311838587808,-0.0159877482802,-0.00892649311572,-0.0523598752916,-0.320823022461,9.48582697754,4.25928475342
1542883311843656512,-0.0123905055225,-0.00719448691234,-0.0516937188804,0.478840332031,9.69172832031,5.22414802246
1542883311848787200,-0.0218499228358,-0.00133231235668,-0.0510275661945,1.15639940186,8.35815799561,5.05655390625
1542883311853910432,-0.0158545169979,-0.013456354849,-0.0523598752916,0.14844050293,9.74200655518,4.6327802124
1542883311859068192,-0.019318530336,0.00346401217394,-0.0500949472189,0.775721337891,8.83220992432,4.17788189697
1542883311864322560,-0.0163874421269,-0.020784072578,-0.0527595691383,1.05105452881,8.37970581055,4.43645567627
1542883311869453728,-0.0178529862314,0.00652833050117,-0.0482297092676,1.18034141846,8.00142194824,4.71178886719
1542883311874556416,-0.0163874421269,-0.0273124035448,-0.0514272563159,0.222660754395,8.97586202393,3.6894647583
1542883311879997472,-0.0115911178291,0.00586217455566,-0.0483629405499,1.72382519531,8.95192000732,6.1171852417
1542883311885423040,-0.0169203672558,-0.0174532923847,-0.0518269501626,0.967257470703,8.38449421387,4.23534273682
1542883311890603488,-0.0130566610023,0.00199846853502,-0.0514272563159,0.845153186035,8.10916102295,4.61841500244
1542883311893523552,-0.0147886676714,-0.00759418075904,-0.0514272563159,0.902614025879,8.34139858398,4.29519777832
1542883311898623776,-0.0159877482802,-0.00692802434787,-0.04956202209,1.02711251221,8.96867941895,5.27921466064
1542883311903735104,-0.0166539046913,0.00159877492115,-0.0484961718321,1.62326872559,8.17859287109,4.48194550781
1542883311908815744,-0.017053598538,-0.0183859113604,-0.0487626343966,0.0837970581055,8.36773480225,3.56017786865
1542883311913888064,-0.00812710542232,0.00985911209136,-0.0460980087519,1.40779057617,8.68376942139,4.87698878174
1542883311918983392,-0.0138560486957,-0.0191852990538,-0.0498284846544,0.390254870605,9.08599530029,4.9152960083
1542883311924063904,-0.0115911178291,0.00692802434787,-0.0475635528564,1.06063133545,8.41561883545,5.51145222168
1542883311929398912,-0.0146554363891,-0.0171868298203,-0.0508943349123,-0.172382519531,9.62947907715,4.24731374512
1542883311934556288,-0.0129234297201,0.00066615617834,-0.047297090292,0.553060583496,9.03332286377,5.08289012451
1542883311939737920,-0.0137228174135,-0.00706125563011,-0.0471638590097,1.01514150391,8.57363614502,4.58729038086
1542883311944887776,-0.0218499228358,-0.0191852990538,-0.0483629405499,0.260967980957,8.54729992676,3.41173736572
1542883311950065056,-0.00786064285785,0.00159877492115,-0.0470306277275,1.61369191895,9.11472572021,5.11880314941
1542883311955179648,-0.0161209795624,-0.0130566610023,-0.0484961718321,1.49877023926,7.43878455811,4.81473953857
1542883311960310176,-0.012656968087,-0.00386370602064,-0.045032158494,1.93690914307,7.09401951904,4.09408483887
1542883311965397344,-0.0150551302359,-0.0145222051069,-0.0479632467031,0.366312854004,9.14106193848,4.54180054932
1542883311970515456,-0.00786064285785,-0.00466309348121,-0.0462312400341,2.2170307373,8.26478413086,6.1890112915
1542883311975884192,-0.0145222051069,-0.00239816238172,-0.0455650836229,1.10372696533,7.98226833496,6.1171852417
1542883311978760928,-0.0141225112602,-0.0102588050067,-0.0479632467031,1.00077629395,7.86016405029,3.17949980469
1542883311984051744,-0.0125237368047,-0.00479632476345,-0.0444992333651,0.775721337891,8.35576379395,4.66390483398
1542883311989258048,-0.0130566610023,-0.00386370602064,-0.0474303215742,1.43173259277,8.79150849609,4.62320340576
1542883311994398208,-0.0145222051069,-0.0110581927001,-0.0458315461874,0.46686932373,7.97747993164,4.70700046387
1542883311999541120,-0.0165206734091,-0.00492955604568,-0.0463644713163,1.09893856201,8.54729992676,4.15393988037
1542883312004640768,-0.00719448691234,-0.012656968087,-0.0458315461874,0.282515795898,8.43477244873,5.00866987305
1542883312009722496,-0.0150551302359,-0.000799387460575,-0.047297090292,1.8866309082,7.69975253906,5.10922634277
1542883312014868768,-0.0123905055225,-0.0197182241827,-0.0479632467031,0.60573302002,7.27837304687,3.62482131348
1542883312019937760,-0.0138560486957,0.00599540583789,-0.0446324646473,1.20428343506,8.66222160645,3.79241542969
1542883312025192480,-0.00945941824466,-0.0130566610023,-0.0488958656788,0.797269152832,8.43956085205,4.13718046875
1542883312030432384,-0.0154548240826,-0.00506278686225,-0.0442327708006,1.01753570557,7.81946262207,4.88417138672
1542883312035579552,-0.0129234297201,-0.00226493109949,-0.0435666143894,1.43173259277,7.81228001709,3.33272871094
1542883312038566272,-0.0158545169979,-0.0174532923847,-0.0425007641315,0.366312854004,6.6941878418,3.26569106445
1542883312043662144,-0.0118575803936,0.00492955604568,-0.0436998456717,1.90339031982,7.17542237549,4.85304676514
1542883312048725088,-0.0135895861313,-0.0211837664247,-0.0482297092676,1.06302553711,7.0605006958,3.88339509277
1542883312053844000,-0.0110581927001,0.00799387414008,-0.0440995395184,1.96324536133,8.22168850098,5.20738861084
1542883312058932736,-0.0114578865469,-0.0211837664247,-0.046764165163,0.91697923584,7.66623371582,3.85705887451
1542883312064024832,-0.0110581927001,0.000932618684601,-0.0419678390026,1.57777889404,8.49702169189,5.01345827637
1542883312069143040,-0.012124042958,-0.00999234244227,-0.0479632467031,1.25695587158,9.06684168701,4.28322677002
1542883312074223008,-0.0146554363891,-0.00479632476345,-0.045032158494,0.91458503418,8.39885942383,4.81952794189
1542883312079347840,-0.0143889738247,-0.00106584990863,-0.0447656959295,0.854729992676,8.44195505371,4.95839163818
1542883312084708544,-0.0153215928003,-0.0142557425424,-0.0440995395184,0.203507141113,8.78193168945,4.656722229
1542883312089852960,-0.0131898922846,0.00786064285785,-0.038637060672,1.61129771729,9.12430252686,5.28639726562
1542883312094977312,-0.0143889738247,-0.0163874421269,-0.0442327708006,0.665588061523,8.82023891602,4.2544963501
1542883312100075712,-0.00866003055125,0.00386370602064,-0.0402358323336,1.82198746338,8.47547387695,4.9152960083
1542883312105291872,-0.0159877482802,-0.0138560486957,-0.0423675328493,0.943315454102,7.80270321045,3.86184727783
1542883312110367200,-0.0102588050067,-0.0063950996846,-0.042767226696,0.981622680664,7.59440766602,4.51546433105
1542883312115425600,-0.0137228174135,-0.00586217455566,-0.0421010702848,1.01753570557,8.52814631348,4.66629903564
1542883312120501408,-0.00799387414008,-0.00812710542232,-0.0417013764381,0.754173522949,7.80509741211,4.5968671875
1542883312125779904,-0.00932618696243,-0.00826033670455,-0.0409019887447,0.656011254883,9.44991395264,4.6088381958
1542883312128668544,-0.0111914239824,-0.00599540583789,-0.0419678390026,0.691924279785,8.46589707031,5.49708701172
1542883312136075744,-0.0125237368047,-0.00772741204128,-0.0413016825914,1.91775552979,8.06606539307,3.81396324463
1542883312138973792,-0.0146554363891,-0.0109249614179,-0.0414349138737,-0.347159240723,8.6047607666,3.97437475586
1542883312144041472,-0.00959264952689,-0.00679479306564,-0.0402358323336,0.802057556152,9.86171663818,4.3023803833
1542883312149158848,-0.0125237368047,-0.00559571199119,-0.0419678390026,0.76135612793,9.13627353516,4.87220037842
1542883312154232608,-0.012124042958,-0.00706125563011,-0.0440995395184,0.794874951172,7.82903942871,3.95043273926
1542883312159385056,-0.0137228174135,-0.0066615617834,-0.0443660020828,1.14442839355,9.84495722656,4.48433970947
1542883312164484416,-0.0133231235668,-0.00466309348121,-0.0426339954138,1.52510645752,7.76200178223,4.35744702148
1542883312169585120,-0.012124042958,-0.00226493109949,-0.043300151825,0.857124194336,9.49300958252,4.92008441162
1542883312174782592,-0.0101255737245,-0.00399693707004,-0.0414349138737,0.667982263184,8.97346782227,4.85065256348
1542883312179969888,-0.0118575803936,-0.00466309348121,-0.0409019887447,0.76135612793,7.6853873291,4.44842668457
1542883312185302560,-0.0209173038602,-0.00652833050117,-0.0430336892605,0.0814028564453,7.87452926025,2.58813199463
1542883312190459840,-0.00706125563011,-0.00612863712013,-0.0417013764381,0.591367810059,9.62229647217,3.77326181641
1542883312195571680,-0.0107917301357,0.000532924954314,-0.0406355261803,0.972045874023,9.35654008789,5.36061751709
1542883312200685344,-0.00945941824466,-0.00626186840236,-0.0397029109299,1.09175595703,7.96311472168,4.41969626465
1542883312205758304,-0.0129234297201,-0.00679479306564,-0.0431669205427,-0.229843359375,10.2711251221,3.22020123291
1542883312210822080,-0.0102588050067,-0.0066615617834,-0.0413016825914,0.45729251709,9.440337146,5.20020600586
1542883312213709120,-0.0105252675712,-0.000799387460575,-0.0378376729786,0.979228479004,9.1578213501,4.85304676514
1542883312218800064,-0.0166539046913,-0.00972588080913,-0.0426339954138,0.600944616699,8.68376942139,3.82114584961
1542883312223899264,-0.0129234297201,-0.00786064285785,-0.0398361384869,0.411802685547,9.24880101318,4.0078935791
1542883312229015264,-0.0135895861313,-0.00466309348121,-0.0415681451559,1.68312376709,8.2264769043,5.11401474609
1542883312234177664,-0.0149218989536,-0.00799387414008,-0.0382373668253,0.751779321289,9.44751975098,4.69742365723
1542883312239321888,-0.0117243491113,-0.0037304747384,-0.0402358323336,1.03190091553,9.2535894165,4.69502945557
1542883312244446368,-0.0145222051069,-0.00972588080913,-0.0389035232365,0.742202514648,8.65503900146,4.76685550537
1542883312249541664,-0.0115911178291,-0.00719448691234,-0.039169985801,0.76135612793,10.4674496582,4.58968458252
1542883312254638048,-0.0143889738247,-0.0114578865469,-0.0421010702848,0.217872351074,9.27274302979,4.8913539917
1542883312259751680,-0.0146554363891,0.0027978559956,-0.0423675328493,1.57777889404,8.9231895874,4.82431634521
1542883312264830560,-0.0147886676714,-0.0107917301357,-0.0419678390026,0.351947644043,10.2471831055,4.96796844482
1542883312269951680,-0.0174532923847,-0.00266462471336,-0.0395696796477,1.24019645996,8.5927897583,4.61841500244
1542883312275134464,-0.0113246552646,-0.00519601814449,-0.040502294898,0.825999572754,9.02135185547,3.86902988281
1542883312280325504,-0.0185191426426,-0.00732771819457,-0.039169985801,0.588973608398,9.42597193604,4.73812508545
1542883312285561120,-0.0145222051069,-0.000799387460575,-0.0397029109299,1.68791217041,9.18415756836,6.25604893799
1542883312290738496,-0.0182526800781,-0.0111914239824,-0.0389035232365,1.17315881348,7.90086547852,5.52102902832
1542883312295875424,-0.0159877482802,-0.00173200608697,-0.0389035232365,0.967257470703,9.03571706543,3.82832845459
1542883312298757824,-0.0158545169979,-0.0125237368047,-0.0385038293898,0.342370837402,8.41322463379,4.86501777344
1542883312303841312,-0.0185191426426,0.00559571199119,-0.0363721288741,1.80043964844,8.6287027832,5.06134230957
1542883312311153280,-0.0131898922846,-0.0177197549492,-0.040502294898,-0.0215478149414,9.71088193359,4.08211383057
1542883312314010688,-0.0165206734091,0.0027978559956,-0.0359724350274,1.5083470459,8.85854614258,4.85065256348
1542883312319081152,-0.0129234297201,-0.0107917301357,-0.0378376729786,0.711077893066,7.97269152832,4.18745870361
1542883312324167424,-0.0133231235668,-0.00492955604568,-0.036905054003,0.663193859863,9.46188496094,4.52264693604
1542883312329300864,-0.0135895861313,-0.0063950996846,-0.0362388975918,1.71664259033,8.91600698242,4.94163222656
1542883312334576704,-0.0151883615181,-0.000932618684601,-0.0359724350274,1.60650931396,9.29668504639,4.77643231201
1542883312339780800,-0.0141225112602,0.000932618684601,-0.0373047478497,1.13245738525,8.13789144287,4.30956298828
1542883312344894816,-0.0146554363891,-0.0135895861313,-0.0381041355431,0.952892260742,8.34139858398,4.91290180664
1542883312350022944,-0.0135895861313,0.00919295568019,-0.0371715165675,1.7669208252,9.87608184814,5.58088406982
1542883312355105344,-0.0177197549492,-0.0186523739249,-0.0414349138737,0.361524450684,8.99262143555,4.9392380249
1542883312360155392,-0.0161209795624,0.00759418075904,-0.0361056663096,1.2976572998,8.72686505127,5.35343491211
1542883312365269440,-0.0182526800781,-0.0153215928003,-0.0402358323336,0.646434448242,9.67018050537,3.72777198486
1542883312370362720,-0.0105252675712,0.0063950996846,-0.0366385914385,1.34314713135,9.89762966309,5.64792171631
1542883312375743872,-0.0159877482802,-0.00919295568019,-0.0366385914385,1.11569797363,8.17619866943,4.33350500488
1542883312382251424,-0.0147886676714,-0.0066615617834,-0.0375712104142,0.723048901367,8.85615194092,3.63439812012
1542883312385294016,-0.0110581927001,0.00173200608697,-0.0381041355431,0.730231506348,8.89685336914,4.61362659912
1542883312390505376,-0.012656968087,-0.0125237368047,-0.0377044416964,0.964863269043,7.42920775146,4.78361491699
1542883312395650016,-0.0137228174135,0.00839356798679,-0.0349065847695,0.964863269043,9.43794294434,4.96796844482
1542883312400717760,-0.0171868298203,-0.0231822356582,-0.0377044416964,-0.61530982666,8.85615194092,4.07971962891
1542883312405819104,-0.00985911209136,0.0161209795624,-0.0311761107296,1.11330377197,9.43554874268,5.45877978516
1542883312410901568,-0.0137228174135,-0.0169203672558,-0.036905054003,0.0526724365234,7.74524237061,4.19464130859
1542883312416035744,-0.0107917301357,0.00679479306564,-0.036905054003,1.30244570312,10.2591541138,4.25689055176
1542883312418888640,-0.0157212857157,-0.00213169981726,-0.0366385914385,0.344765039063,9.27034882812,5.17626398926
1542883312423953728,-0.0162542108446,-0.00239816238172,-0.0390367545187,1.28329208984,7.13232674561,4.70939466553
1542883312429067840,-0.0131898922846,0.00253139343113,-0.0393032170832,0.725443103027,9.91438907471,3.91451971436
1542883312434276320,-0.0171868298203,-0.00932618696243,-0.038637060672,1.11090957031,9.2416184082,4.65193382568
1542883312439411296,-0.0130566610023,0.00985911209136,-0.0362388975918,1.44609780273,8.95192000732,5.69341154785
1542883312444516864,-0.0189188364893,-0.0114578865469,-0.0379709042609,0.646434448242,9.61271966553,4.18745870361
1542883312449613952,-0.0141225112602,0.00426339963451,-0.0341071970761,1.2138602417,8.96389101563,4.37420643311
1542883312454667296,-0.0174532923847,-0.00546248070896,-0.0355727411807,0.469263525391,9.08838950195,4.30956298828
1542883312459780832,-0.00612863712013,-0.0018652373692,-0.0349065847695,0.644040246582,10.3477395752,5.5880666748
1542883312464873408,-0.0154548240826,-0.000932618684601,-0.035173047334,1.04866032715,8.49941589355,5.70538255615
1542883312469975008,-0.013989279978,0.000399693730287,-0.0355727411807,0.751779321289,8.79869110107,3.61045610352
1542883312475104480,-0.0141225112602,-0.00106584990863,-0.0377044416964,0.294486804199,8.04451757812,3.9959225708
1542883312480226240,-0.0158545169979,-0.00506278686225,-0.0383705981076,0.691924279785,8.47786807861,4.41011945801
1542883312485830272,-0.0115911178291,0.00479632476345,-0.0337075032294,1.34554133301,9.66299790039,4.74291348877
1542883312490954592,-0.0191852990538,-0.00652833050117,-0.0335742719471,-0.0885854614258,9.09796630859,3.67270534668
1542883312496093888,-0.00985911209136,0.00266462471336,-0.0350398160517,0.323217224121,9.54089361572,4.19703551025
1542883312498980160,-0.0173200611025,-0.0031975498423,-0.0326416529715,0.751779321289,9.4762501709,5.04218869629
1542883312504056416,-0.0107917301357,-0.00306431856006,-0.0339739657938,1.54904847412,9.19612857666,5.35822331543
1542883312511390880,-0.0166539046913,-0.00213169981726,-0.0338407345116,1.31441671143,8.74362446289,4.17548769531
1542883312514263488,-0.0135895861313,-0.00346401217394,-0.0350398160517,0.967257470703,7.36217010498,4.89614239502
1542883312519319840,-0.0154548240826,0.00173200608697,-0.0354395098984,1.11330377197,9.92636008301,4.34787021484
1542883312524389440,-0.0138560486957,0.00599540583789,-0.0350398160517,0.560243188477,8.54011732178,5.37258852539
1542883312529497568,-0.0157212857157,-0.00213169981726,-0.0330413468182,0.940921252441,7.99423934326,4.13957467041
1542883312534683648,-0.0171868298203,0.000133231238578,-0.0347733534873,1.15879360352,9.71806453857,3.86902988281
1542883312539880480,-0.0135895861313,0.00066615617834,-0.0306431856006,0.802057556152,9.88565865479,4.9152960083
1542883312544994432,-0.0155880553648,-0.00239816238172,-0.0331745781004,0.885854614258,7.90086547852,4.82431634521
1542883312550168608,-0.0127901993692,0.00386370602064,-0.0303767230362,0.952892260742,9.67736311035,5.21935961914
1542883312555274624,-0.0186523739249,-0.0178529862314,-0.0317090339959,0.325611425781,7.29273825684,3.30878669434
1542883312560351072,-0.0127901993692,0.0147886676714,-0.0291776414961,1.47482822266,8.85854614258,4.90811340332
1542883312565458528,-0.0201179161668,-0.0102588050067,-0.0379709042609,-0.0407014282227,8.214505896,2.60249720459
1542883312570573856,-0.0133231235668,0.00679479306564,-0.0331745781004,0.77332713623,9.41878933105,4.71897147217
1542883312575756768,-0.0129234297201,0.0066615617834,-0.0317090339959,0.361524450684,9.72045874023,4.41490786133
1542883312581088384,-0.013989279978,0.000266462477157,-0.0338407345116,0.0909796630859,8.2504189209,5.42286676025
1542883312586363936,-0.0167871359736,0.00879326183349,-0.0315758027136,1.25216746826,9.65820949707,5.5760956665
1542883312589268928,-0.0159877482802,-0.012124042958,-0.0326416529715,0.732625708008,7.39568892822,4.70700046387
1542883312594418400,-0.013989279978,0.0127901993692,-0.0277120973915,1.88184250488,7.22330640869,5.46596239014
1542883312599521664,-0.0165206734091,-0.0159877482802,-0.0339739657938,0.335188232422,8.48026228027,3.42370837402
1542883312604717824,-0.0117243491113,0.0167871359736,-0.0285114850849,1.74058460693,8.75559547119,5.1618987793
1542883312609848768,-0.0166539046913,-0.00119908119086,-0.0321087278426,0.840364782715,7.51539901123,3.75889660645
1542883312614935136,-0.0173200611025,0.00106584990863,-0.0335742719471,1.05105452881,9.33978067627,3.80438643799
1542883312620051616,-0.013989279978,0.0109249614179,-0.0321087278426,1.54186586914,8.47307967529,4.71418306885
1542883312625361216,-0.0143889738247,-0.0027978559956,-0.0338407345116,2.08295544434,6.72291826172,5.2097828125
1542883312630565984,-0.017053598538,0.010392036289,-0.0315758027136,1.47961662598,7.59440766602,4.06774862061
1542883312635928064,-0.0166539046913,-0.00905972439796,-0.0322419591248,0.574608398438,8.54251152344,3.92170231934
1542883312641091136,-0.0185191426426,0.0137228174135,-0.0277120973915,1.51313544922,7.79073220215,4.73094248047
1542883312643958496,-0.0166539046913,-0.012124042958,-0.0327748842537,0.814028564453,7.7332713623,3.46201560059
1542883312649071488,-0.0183859113604,0.0159877482802,-0.0289111789316,1.00077629395,7.8960770752,4.0318355957
1542883312654163104,-0.0143889738247,-0.000399693730287,-0.0321087278426,1.29526309814,8.08043060303,3.80917484131
1542883312661551456,-0.0153215928003,0.0109249614179,-0.0306431856006,0.92655604248,9.02614025879,5.19062919922
1542883312664413376,-0.0130566610023,0.00559571199119,-0.0309096481651,1.27132108154,8.66222160645,4.65193382568
1542883312669516192,-0.0167871359736,0.000532924954314,-0.0271791722625,1.37666595459,9.11951412354,4.67587584229
1542883312674640128,-0.0211837664247,0.00892649311572,-0.0281117912382,0.562637390137,8.6167317749,5.12837995605
1542883312679787648,-0.013456354849,-0.00532924942672,-0.0289111789316,1.64481654053,8.75798967285,4.50828172607
1542883312684998496,-0.0206508412957,0.0191852990538,-0.0255803987384,1.04147772217,9.28471403809,4.38378323975
1542883312690135392,-0.0130566610023,-0.00599540583789,-0.0337075032294,0.794874951172,9.79946739502,5.28639726562
1542883312695229952,-0.019318530336,0.0191852990538,-0.0261133220047,1.57059628906,9.05247647705,4.95839163818
1542883312700379968,-0.0158545169979,0.00239816238172,-0.0310428794473,0.0359130249023,8.21211169434,4.37660063477
1542883312705510816,-0.0183859113604,0.00572894327343,-0.0294441040605,0.909796630859,8.70531723633,3.78762702637
1542883312710600608,-0.020251147449,0.0137228174135,-0.0261133220047,0.873883605957,8.59518395996,4.8913539917
1542883312715678848,-0.0150551302359,-0.00159877492115,-0.0299770291895,0.270544787598,9.86171663818,4.40293685303
1542883312720725184,-0.0187856052071,0.0157212857157,-0.0267794784158,0.61770402832,8.35815799561,5.38216533203
1542883312726140192,-0.0151883615181,-0.00506278686225,-0.0266462471336,0.869095202637,8.67658681641,3.97676895752
1542883312729041408,-0.0227825418115,0.0209173038602,-0.0238483920693,1.14921679688,8.42519564209,4.13478626709
1542883312736541056,-0.0110581927001,-0.00932618696243,-0.0294441040605,0.797269152832,9.09317790527,4.49870491943
1542883312739502176,-0.0169203672558,0.024781011045,-0.0238483920693,2.13083947754,9.05965908203,6.36139381104
1542883312744628256,-0.0151883615181,-0.00546248070896,-0.0286447163671,1.592144104,7.71651195068,4.83868155518
1542883312749718304,-0.0195849929005,0.020251147449,-0.025713628158,0.964863269043,8.84657513428,4.63517441406
1542883312754810368,-0.0137228174135,0.00293108727783,-0.0269127096981,0.735019909668,9.44273134766,4.52025273438
1542883312759896576,-0.0195849929005,0.0161209795624,-0.0258468594402,0.488417138672,9.440337146,5.34864650879
1542883312764975520,-0.0182526800781,0.000399693730287,-0.0251807048917,0.869095202637,7.85537564697,4.93444962158
1542883312770087680,-0.0185191426426,0.00506278686225,-0.0250474736094,1.40779057617,7.721300354,4.43645567627
1542883312775314016,-0.0178529862314,0.00799387414008,-0.0267794784158,0.60573302002,8.87051715088,4.11563265381
1542883312780617184,-0.012124042958,0.012124042958,-0.0254471674562,1.51552965088,8.78672009277,5.92564910889
1542883312785878208,-0.0171868298203,0.00879326183349,-0.0221163854003,1.47722242432,7.58004245605,4.39814844971
1542883312791016416,-0.0154548240826,0.000799387460575,-0.024248085916,1.61848032227,8.06127698975,3.73974299316
1542883312796097664,-0.0138560486957,0.0162542108446,-0.0254471674562,0.478840332031,8.73404765625,4.83868155518
1542883312801219904,-0.019318530336,0.0066615617834,-0.0230490043759,1.55862528076,7.14908615723,4.71418306885
1542883312804109312,-0.0286447163671,0.0301102604717,-0.0435666143894,1.36708914795,9.80186159668,3.70382996826
1542883312811419008,-0.0219831541181,0.00253139343113,-0.0249142423272,0.888248815918,7.24006582031,3.71819517822
1542883312814289952,-0.013456354849,0.0167871359736,-0.0241148546338,1.66397015381,10.2112700806,5.1858407959
1542883312819369632,-0.0183859113604,0.00572894327343,-0.0235819295049,1.46525141602,7.27358464355,4.73573088379
1542883312824430848,-0.0146554363891,0.0159877482802,-0.024248085916,1.81959326172,8.62152017822,4.18506450195
1542883312830480352,-0.0179862175137,0.00985911209136,-0.0253139361739,0.119710083008,8.49941589355,4.20182391357
1542883312835657536,-0.0145222051069,0.017053598538,-0.0241148546338,1.26653267822,8.73644185791,5.03979449463
1542883312840846880,-0.0187856052071,0.0163874421269,-0.0255803987384,0.560243188477,8.56645354004,5.15950457764
1542883312845943520,-0.0203843787313,0.0027978559956,-0.0253139361739,0.533906970215,9.72524714355,3.67270534668
1542883312850997600,-0.0163874421269,0.0206508412957,-0.0219831541181,0.76614453125,8.48505068359,4.68545264893
1542883312856087648,-0.019318530336,0.00346401217394,-0.0223828479648,0.548272180176,8.09000740967,3.83551105957
1542883312861205472,-0.0131898922846,0.0165206734091,-0.0214502289891,0.337582434082,9.12909093018,5.44920297852
1542883312866341760,-0.0171868298203,0.00812710542232,-0.0219831541181,1.03429511719,8.99262143555,5.07810172119
1542883312869225664,-0.0173200611025,0.013989279978,-0.0221163854003,0.442927307129,7.92720169678,4.22816013184
1542883312874315520,-0.0131898922846,0.00932618696243,-0.0245145484805,1.11090957031,9.53849941406,3.72298358154
1542883312879474048,-0.0167871359736,0.0135895861313,-0.0239816233516,0.567425793457,8.58081875,4.38617744141
1542883312884672416,-0.013456354849,0.0183859113604,-0.024248085916,1.86747729492,8.35097539062,5.03979449463
1542883312889806912,-0.0223828479648,0.0063950996846,-0.0231822356582,0.478840332031,6.90487758789,3.04542451172
1542883312894960448,-0.0122572742403,0.0183859113604,-0.0231822356582,0.287304199219,10.1538092407,4.36941802979
1542883312900072288,-0.017586523667,0.0190520677716,-0.0219831541181,1.40539637451,9.03092866211,5.33667550049
1542883312905156160,-0.012656968087,0.00932618696243,-0.0223828479648,0.802057556152,8.75559547119,5.37258852539
1542883312910251616,-0.0163874421269,0.0231822356582,-0.0243813171983,1.5083470459,8.80347950439,4.13239206543
1542883312915336064,-0.0190520677716,0.00572894327343,-0.0235819295049,0.952892260742,7.74045396729,2.57137258301
1542883312920449216,-0.0146554363891,0.0278453286737,-0.022516079247,1.65439334717,8.83699832764,4.97754525146
1542883312925719488,-0.0171868298203,0.0157212857157,-0.0227825418115,1.8148048584,7.3549875,3.94325013428
1542883312930939808,-0.0179862175137,0.0159877482802,-0.0211837664247,0.823605371094,9.28231983643,3.92170231934
1542883312936296672,-0.020251147449,0.0158545169979,-0.0218499228358,0.519541760254,8.95192000732,4.13957467041
1542883312939213216,-0.0125237368047,0.00905972439796,-0.0213169977069,1.4844050293,7.26161363525,4.78361491699
1542883312944298496,-0.0161209795624,0.0246477797627,-0.0205176100135,0.814028564453,9.5720182373,5.34146390381
1542883312949420192,-0.0150551302359,0.00413016835228,-0.0230490043759,0.225054956055,9.54089361572,4.69024105225
1542883312954535808,-0.0177197549492,0.024781011045,-0.0171868298203,0.933738647461,10.0508585693,5.97592734375
1542883312959629888,-0.0178529862314,0.00759418075904,-0.0231822356582,0.373495458984,8.92079538574,4.49631071777
1542883312964741568,-0.0154548240826,0.0231822356582,-0.019851455465,1.44609780273,8.49941589355,4.78840332031
1542883312969835328,-0.0181194487959,0.012656968087,-0.0197182241827,0.213083947754,8.31745656738,3.78044442139
1542883312975060768,-0.0173200611025,0.0187856052071,-0.0218499228358,0.380678063965,9.61032546387,4.40054265137
1542883312980321952,-0.017586523667,0.0199846848845,-0.0191852990538,1.19710083008,9.22246479492,4.80755693359
1542883312985620128,-0.0162542108446,0.0125237368047,-0.0206508412957,0.900219824219,9.7348239502,4.40054265137
1542883312990740736,-0.017053598538,0.024781011045,-0.0194517616183,0.852335791016,9.50976899414,5.09246693115
1542883312995936544,-0.0147886676714,0.00932618696243,-0.0209173038602,1.11569797363,8.0038161499,4.36702382812
1542883313001043200,-0.0219831541181,0.024248085916,-0.017586523667,1.33835872803,7.47469758301,4.12042105713
1542883313006159808,-0.0127901993692,0.00772741204128,-0.0217166915536,0.782903942871,9.44751975098,3.47877501221
1542883313011313408,-0.0158545169979,0.0301102604717,-0.0178529862314,0.691924279785,8.24323631592,5.33667550049
1542883313016418144,-0.0142557425424,0.0186523739249,-0.0187856052071,1.33117612305,9.53131680908,4.31913979492
1542883313019290944,-0.0181194487959,0.0135895861313,-0.0211837664247,0.821211169434,8.71249984131,4.37181223145
1542883313024358240,-0.0166539046913,0.0222496166825,-0.0167871359736,1.42454998779,8.34379278564,4.0557776123
1542883313029463872,-0.0127901993692,0.0190520677716,-0.0194517616183,1.89381351318,8.89445916748,5.34385810547
1542883313034767488,-0.0194517616183,0.0246477797627,-0.0171868298203,1.97042796631,7.9439611084,4.45560928955
1542883313040014176,-0.0131898922846,0.0109249614179,-0.0171868298203,1.07499654541,7.45075556641,4.90571920166
1542883313045231584,-0.0178529862314,0.0321087278426,-0.0194517616183,1.93451494141,9.38527050781,4.30956298828
1542883313050342944,-0.0191852990538,0.00732771819457,-0.0213169977069,0.849941589355,9.47864437256,4.18267030029
1542883313055579104,-0.0165206734091,0.036905054003,-0.0167871359736,0.746990917969,8.16662186279,5.4803276001
1542883313060759424,-0.0214502289891,0.00799387414008,-0.0194517616183,0.469263525391,8.52335791016,4.33111080322
1542883313065922208,-0.0146554363891,0.0293108727783,-0.020784072578,2.25773216553,10.1131078125,4.48194550781
1542883313071130784,-0.0203843787313,0.0171868298203,-0.0181194487959,0.481234533691,8.02536396484,4.20900651855
1542883313076421920,-0.0159877482802,0.0306431856006,-0.017586523667,0.799663354492,8.33900438232,5.46596239014
1542883313079326784,-0.017053598538,0.0127901993692,-0.0189188364893,1.01274730225,9.68933411865,4.19703551025
1542883313087459008,-0.0169203672558,0.0209173038602,-0.017586523667,0.493205541992,10.1155020142,5.2097828125
1542883313090358048,-0.0178529862314,0.0265130158514,-0.0173200611025,1.18273562012,8.25760152588,4.96078583984
1542883313095454624,-0.0163874421269,0.0129234297201,-0.020784072578,0.972045874023,8.99501563721,3.88339509277
1542883313100539552,-0.0141225112602,0.0287779476494,-0.0199846848845,2.12844527588,8.49941589355,4.60165559082
1542883313105656096,-0.0161209795624,0.013989279978,-0.0195849929005,1.25695587158,7.69975253906,4.04141240234
1542883313110762624,-0.019318530336,0.0306431856006,-0.0166539046913,0.136469494629,9.45709655762,4.44124407959
1542883313115919168,-0.0173200611025,0.017053598538,-0.0205176100135,0.378283862305,8.74362446289,4.59926138916
1542883313120988672,-0.0186523739249,0.0285114850849,-0.0171868298203,1.51552965088,9.22485899658,4.9152960083
1542883313126123776,-0.0162542108446,0.0186523739249,-0.017586523667,1.13245738525,7.56807144775,4.54658895264
1542883313131286912,-0.0146554363891,0.0187856052071,-0.0163874421269,1.57777889404,8.17619866943,4.46279189453
1542883313136474784,-0.0197182241827,0.0271791722625,-0.0158545169979,1.08936175537,8.32463917236,4.02465299072
1542883313139388896,-0.0183859113604,0.0219831541181,-0.0179862175137,-0.0502782348633,9.2655604248,4.68784685059
1542883313144501728,-0.017053598538,0.0327748842537,-0.0161209795624,1.41257897949,8.38688841553,4.73333668213
1542883313149604192,-0.0190520677716,0.0133231235668,-0.0205176100135,1.23061965332,7.85776984863,3.6894647583
1542883313154773216,-0.0162542108446,0.0394364483654,-0.0181194487959,1.9105729248,9.11711992188,5.39653054199
1542883313159887776,-0.0190520677716,0.0127901993692,-0.0185191426426,1.39103116455,8.72207664795,4.34547601318
1542883313165052768,-0.0150551302359,0.0331745781004,-0.017586523667,1.67594116211,8.17859287109,5.8226984375
1542883313170153664,-0.0229157730937,0.0183859113604,-0.0177197549492,1.06063133545,8.45871446533,3.3949779541
1542883313175277056,-0.017053598538,0.0221163854003,-0.0185191426426,0.256179577637,9.57441243896,5.10204373779
1542883313180623392,-0.0165206734091,0.0291776414961,-0.0165206734091,1.81959326172,8.38928261719,4.96557424316
1542883313185923136,-0.0161209795624,0.0214502289891,-0.0179862175137,1.38145435791,8.96149681396,4.42448466797
1542883313191057632,-0.0162542108446,0.0221163854003,-0.0194517616183,0.201112939453,11.0731826782,3.51708223877
1542883313196104896,-0.0189188364893,0.0319754965603,-0.0157212857157,1.58496149902,7.39808312988,5.69819995117
1542883313201561440,-0.0191852990538,0.0201179161668,-0.017053598538,1.09415015869,7.41244833984,3.73256038818
1542883313204649856,-0.0178529862314,0.0241148546338,-0.0185191426426,0.45250411377,10.6254669678,3.58411988525
1542883313209835072,-0.017586523667,0.0214502289891,-0.0133231235668,0.873883605957,8.15704505615,5.56891306152
1542883313214944800,-0.0177197549492,0.0311761107296,-0.0135895861313,1.7669208252,8.17619866943,4.33350500488
1542883313220076992,-0.017053598538,0.0147886676714,-0.020251147449,-0.497993945312,9.61750806885,3.09330854492
1542883313225202816,-0.019851455465,0.0238483920693,-0.0146554363891,1.51792385254,7.23288321533,4.34547601318
1542883313230537472,-0.0143889738247,0.0345068909228,-0.0157212857157,2.91374342041,8.83699832764,5.20020600586
1542883313235707712,-0.0223828479648,0.0182526800781,-0.0150551302359,-0.256179577637,8.15943925781,4.54419475098
1542883313240879712,-0.0147886676714,0.0306431856006,-0.0171868298203,0.986411083984,10.2184526855,5.01106407471
1542883313246022560,-0.0214502289891,0.020251147449,-0.0174532923847,1.56101948242,8.00142194824,4.8913539917
1542883313251350784,-0.0194517616183,0.0314425714314,-0.0185191426426,1.7788918335,9.63187327881,4.22337172852
1542883313256481472,-0.0189188364893,0.0153215928003,-0.0166539046913,0.380678063965,7.69017573242,4.13239206543
1542883313261856160,-0.0155880553648,0.025713628158,-0.0150551302359,1.60890351563,8.30548555908,4.67348164062
1542883313264871360,-0.0142557425424,0.0317090339959,-0.0165206734091,1.71664259033,7.7093293457,5.00627567139
1542883313269957280,-0.0206508412957,0.0165206734091,-0.0155880553648,1.03668931885,8.83699832764,3.55299526367
1542883313275241216,-0.0143889738247,0.0345068909228,-0.0174532923847,0.962469067383,8.54251152344,4.96557424316
1542883313280425024,-0.017053598538,0.0241148546338,-0.0194517616183,1.17555301514,9.38048210449,4.51067592773
1542883313286165248,-0.0218499228358,0.0342404283583,-0.017586523667,2.04464821777,7.05571229248,4.33589920654
1542883313291297024,-0.0167871359736,0.0182526800781,-0.0187856052071,0.792480749512,9.58877764893,3.52905324707
1542883313296379200,-0.0182526800781,0.0338407345116,-0.0137228174135,0.993593688965,8.47068547363,5.70298835449
1542883313301514560,-0.019318530336,0.0127901993692,-0.017586523667,1.12288057861,8.65743320312,5.10683214111
1542883313306613888,-0.0218499228358,0.0294441040605,-0.0171868298203,0.483628735352,9.81383260498,4.81473953857
1542883313311703136,-0.0145222051069,0.024248085916,-0.0185191426426,1.03908352051,9.32062706299,4.53222374268
1542883313314580832,-0.0187856052071,0.0211837664247,-0.0162542108446,0.967257470703,8.36055219727,4.9152960083
1542883313319661312,-0.0177197549492,0.0266462471336,-0.0187856052071,1.04866032715,9.27274302979,3.6535517334
1542883313324715648,-0.0138560486957,0.0341071970761,-0.0213169977069,0.986411083984,8.5927897583,4.73573088379
1542883313329870144,-0.0215834602714,0.0273124035448,-0.0179862175137,1.20667763672,7.97747993164,4.71178886719
1542883313335105056,-0.0157212857157,0.0253139361739,-0.0205176100135,1.06063133545,9.02374605713,5.14753356934
1542883313340384832,-0.022516079247,0.0321087278426,-0.019318530336,1.30005150146,8.33182177734,4.71897147217
1542883313345528256,-0.020251147449,0.017053598538,-0.0203843787313,0.541089575195,8.61433757324,4.43406147461
1542883313350633600,-0.0158545169979,0.0342404283583,-0.0190520677716,1.30483990479,10.1226846191,5.66228692627
1542883313355732640,-0.0210505351424,0.019851455465,-0.0191852990538,1.60172091064,8.65025059814,5.09486113281
1542883313360813408,-0.0165206734091,0.0333078093827,-0.0179862175137,1.5203180542,8.827421521,4.65911643066
1542883313365880448,-0.0206508412957,0.0218499228358,-0.0181194487959,0.61052142334,9.32302126465,3.38061274414
1542883313370987904,-0.0153215928003,0.0305099543184,-0.0178529862314,1.63045133057,8.2504189209,4.87698878174
1542883313376123776,-0.0218499228358,0.0310428794473,-0.0166539046913,0.787692346191,8.64546219482,4.39336004639
1542883313381663232,-0.0233154669404,0.019851455465,-0.0209173038602,0.864306799316,8.88009395752,3.66791694336
1542883313386884832,-0.0177197549492,0.0383705981076,-0.0169203672558,2.02310040283,8.57603034668,4.31674559326
1542883313389740512,-0.019318530336,0.0230490043759,-0.0159877482802,1.19231242676,6.51701691895,4.55137735596
1542883313394917248,-0.0181194487959,0.0354395098984,-0.019851455465,1.592144104,10.1178962158,4.53461794434
1542883313400039904,-0.0241148546338,0.0210505351424,-0.0197182241827,1.10372696533,7.15148035889,3.90494290771
1542883313405123488,-0.0185191426426,0.0378376729786,-0.0179862175137,1.81241065674,8.71489404297,4.62799180908
1542883313410422048,-0.0203843787313,0.0234486982226,-0.0203843787313,0.667982263184,8.57363614502,3.7014357666
1542883313415514400,-0.0177197549492,0.0381041355431,-0.0157212857157,1.75973822021,7.94156690674,5.32949289551
1542883313420606368,-0.0235819295049,0.0309096481651,-0.0190520677716,1.26892687988,8.43956085205,4.07253702393
1542883313425768320,-0.0187856052071,0.0209173038602,-0.0197182241827,1.72143099365,9.41400092773,4.71657727051
1542883313430960128,-0.0199846848845,0.040502294898,-0.017053598538,1.89381351318,9.75158336182,5.56891306152
1542883313436187424,-0.0183859113604,0.0162542108446,-0.0183859113604,1.5682020874,8.24084211426,4.21379492187
1542883313441353568,-0.020784072578,0.0335742719471,-0.0186523739249,0.656011254883,10.1346556274,4.27125576172
1542883313446507584,-0.0179862175137,0.0197182241827,-0.0213169977069,0.857124194336,9.37569370117,5.05415970459
1542883313449607456,-0.0199846848845,0.0375712104142,-0.0158545169979,2.50194073486,8.18816967773,5.07810172119
1542883313454714304,-0.0206508412957,0.0218499228358,-0.0181194487959,-0.174776721191,8.42280144043,3.47638081055
1542883313462044768,-0.0162542108446,0.0290444102138,-0.0178529862314,0.208295544434,9.08599530029,4.37660063477
1542883313465075200,-0.0245145484805,0.0383705981076,-0.0161209795624,0.871489404297,8.09000740967,4.98951625977
1542883313470594336,-0.020784072578,0.0142557425424,-0.020784072578,-0.253785375977,7.77876119385,3.58651408691
1542883313476235232,-0.0209173038602,0.0355727411807,-0.0171868298203,0.524330163574,8.54011732178,4.36462962646
1542883313481456736,-0.0203843787313,0.0161209795624,-0.0201179161668,1.12288057861,8.5449057251,4.34068760986
1542883313486639072,-0.019318530336,0.0426339954138,-0.0161209795624,1.30244570312,8.88488236084,5.93522591553
1542883313489539104,-0.0213169977069,0.0169203672558,-0.0210505351424,0.562637390137,9.74918916016,3.57933148193
1542883313494682368,-0.0183859113604,0.0381041355431,-0.0171868298203,1.44130939941,8.69813463135,5.10683214111
1542883313499764256,-0.0183859113604,0.0321087278426,-0.0214502289891,1.65678754883,9.1338793335,4.17309349365
1542883313504867456,-0.0219831541181,0.0231822356582,-0.020251147449,1.38863696289,8.66701000977,3.53863005371
1542883313510011808,-0.0191852990538,0.0397029109299,-0.0186523739249,2.28406838379,8.53054051514,4.71178886719
1542883313515117216,-0.0213169977069,0.0162542108446,-0.0213169977069,1.37187755127,7.6255322876,3.95761534424
1542883313520293440,-0.0233154669404,0.0397029109299,-0.0195849929005,1.75016141357,8.49223328857,5.05415970459
1542883313525624128,-0.0246477797627,0.0195849929005,-0.0217166915536,1.34314713135,7.85776984863,3.74453139648
1542883313530826720,-0.0229157730937,0.0339739657938,-0.0186523739249,1.55144267578,8.04691177979,4.43166727295
1542883313536140960,-0.0214502289891,0.0302434917539,-0.0199846848845,0.328005627441,7.63510909424,4.44842668457
1542883313541316000,-0.0219831541181,0.0241148546338,-0.0217166915536,1.47003981934,9.33259807129,5.02303508301
1542883313546452768,-0.0222496166825,0.0415681451559,-0.0178529862314,2.65038123779,7.22570061035,4.86501777344
1542883313551580096,-0.0217166915536,0.0182526800781,-0.0218499228358,0.91458503418,7.81946262207,3.6535517334
1542883313556687584,-0.0234486982226,0.0395696796477,-0.0194517616183,0.833182177734,9.63426748047,4.12520946045
1542883313561801376,-0.0191852990538,0.0217166915536,-0.0222496166825,1.43412679443,8.78911429443,4.92008441162
1542883313564706560,-0.0245145484805,0.0350398160517,-0.0149218989536,1.64721074219,8.18338127441,4.86022937012
1542883313569892256,-0.0231822356582,0.0245145484805,-0.0222496166825,0.572214196777,8.43956085205,3.93367332764
1542883313575192160,-0.0270459409803,0.0299770291895,-0.0213169977069,1.28089788818,8.11394942627,4.31674559326
1542883313580900384,-0.0214502289891,0.0354395098984,-0.0211837664247,1.52750065918,7.78354959717,5.2217538208
1542883313586727136,-0.0254471674562,0.027978559956,-0.0219831541181,0.792480749512,7.97747993164,4.38378323975
1542883313589782464,-0.0213169977069,0.0317090339959,-0.019851455465,0.210689746094,8.62152017822,4.38857164307
1542883313594894688,-0.0258468594402,0.0275788661093,-0.0221163854003,1.36948334961,7.48906279297,4.89374819336
1542883313599996928,-0.0250474736094,0.0310428794473,-0.0211837664247,1.05584293213,8.77714328613,4.02225878906
1542883313605106112,-0.0233154669404,0.0306431856006,-0.0226493105292,0.426167895508,9.30626185303,4.16591088867
1542883313610266912,-0.024248085916,0.0270459409803,-0.0218499228358,0.969651672363,8.83699832764,4.75009609375
1542883313615335040,-0.0223828479648,0.0321087278426,-0.0215834602714,1.48919343262,8.18577547607,4.53222374268
1542883313620445408,-0.0270459409803,0.0234486982226,-0.0230490043759,0.380678063965,9.69651672363,3.19865341797
1542883313625959328,-0.0205176100135,0.0271791722625,-0.0213169977069,0.962469067383,9.28950244141,5.21217701416
1542883313631103008,-0.0245145484805,0.0307764168829,-0.0213169977069,1.8626888916,8.827421521,4.21140072021
1542883313636342752,-0.0235819295049,0.0315758027136,-0.0217166915536,0.588973608398,8.05888278809,4.11323845215
1542883313641543872,-0.024781011045,0.0326416529715,-0.0229157730937,0.950498059082,10.9917798218,4.3263223999
1542883313647169344,-0.0251807048917,0.0293108727783,-0.0211837664247,1.2737152832,8.5568767334,4.93444962158
1542883313650189568,-0.0273124035448,0.0341071970761,-0.022516079247,1.11090957031,8.14746824951,4.74051928711
1542883313655382432,-0.0262465532869,0.0182526800781,-0.0271791722625,-0.0143652099609,9.48103857422,3.7253777832
1542883313660617600,-0.0226493105292,0.0285114850849,-0.0205176100135,1.59693250732,8.55448253174,5.74129558105
1542883313666018528,-0.0238483920693,0.0302434917539,-0.0203843787313,1.72382519531,7.47948598633,4.41251365967
1542883313671130912,-0.0234486982226,0.0223828479648,-0.0226493105292,0.533906970215,9.13866773682,3.96719215088
1542883313677063968,-0.0226493105292,0.0393032170832,-0.0246477797627,0.373495458984,8.96149681396,4.42927307129
1542883313680114720,-0.0215834602714,0.0258468594402,-0.024781011045,1.12527478027,8.48744488525,5.04458289795
1542883313685343744,-0.0287779476494,0.0431669205427,-0.0219831541181,1.55383687744,8.69334622803,3.82832845459
1542883313690533952,-0.0261133220047,0.0195849929005,-0.0267794784158,0.14604630127,7.98945093994,2.92810863037
1542883313695642496,-0.0290444102138,0.0426339954138,-0.0249142423272,1.40300217285,8.72686505127,5.15950457764
1542883313700738112,-0.0222496166825,0.0253139361739,-0.0270459409803,1.45088620605,9.12669672852,4.67348164062
1542883313705819680,-0.0263797845691,0.0406355261803,-0.0219831541181,0.92655604248,10.1035310059,5.21935961914
1542883313710902464,-0.0218499228358,0.020784072578,-0.027978559956,0.347159240723,9.7467949585,4.94163222656
1542883313716145024,-0.0269127096981,0.0321087278426,-0.0249142423272,1.59453830566,9.69172832031,5.48751020508
1542883313721556928,-0.0229157730937,0.0354395098984,-0.0250474736094,1.46285721436,8.25520732422,4.82671054687
1542883313724901376,-0.0255803987384,0.0181194487959,-0.0295773353428,0.651222851562,8.82981572266,3.9959225708
1542883313730225888,-0.0262465532869,0.0456983149052,-0.0259800907224,1.15161099854,8.99740983887,4.75009609375
1542883313735517472,-0.0289111789316,0.0199846848845,-0.027445634827,0.603338818359,7.95353791504,4.17309349365
1542883313740650080,-0.0234486982226,0.0443660020828,-0.0261133220047,1.57538469238,9.1697923584,4.77403811035
1542883313745791936,-0.024781011045,0.019318530336,-0.0277120973915,1.01514150391,8.10437261963,4.17309349365
1542883313750917024,-0.0226493105292,0.0338407345116,-0.0246477797627,1.64960494385,7.3310454834,5.21457121582
1542883313756025696,-0.0266462471336,0.0210505351424,-0.0277120973915,1.97761057129,8.24563051758,3.87142408447
1542883313761131776,-0.0249142423272,0.027978559956,-0.0270459409803,1.34793553467,8.86094034424,4.34547601318
1542883313766255200,-0.0203843787313,0.0293108727783,-0.0267794784158,0.960074865723,7.51539901123,4.52982954102
1542883313771470304,-0.0258468594402,0.0278453286737,-0.0273124035448,0.723048901367,8.23365950928,4.50828172607
1542883313776595776,-0.0259800907224,0.0387702919543,-0.0277120973915,1.65918175049,8.77953748779,4.0318355957
1542883313781740672,-0.0310428794473,0.0289111789316,-0.0283782538027,1.46285721436,7.30949766846,4.47236870117
1542883313786942016,-0.024781011045,0.0363721288741,-0.0282450225204,1.51313544922,8.24323631592,4.43645567627
1542883313789815040,-0.0254471674562,0.0275788661093,-0.0285114850849,1.58256729736,8.49223328857,3.99352836914
1542883313794871200,-0.0258468594402,0.0246477797627,-0.0295773353428,0.828393774414,8.75320126953,4.11802685547
1542883313800079744,-0.0245145484805,0.0267794784158,-0.0287779476494,0.600944616699,9.85932243652,5.02542928467
1542883313805233440,-0.025713628158,0.0238483920693,-0.0267794784158,1.27132108154,8.17859287109,4.9392380249
1542883313810319040,-0.0215834602714,0.0343736596406,-0.0241148546338,1.53947166748,8.41801303711,4.44842668457
1542883313815452544,-0.0271791722625,0.0313093401492,-0.0293108727783,1.08936175537,8.59039555664,4.0557776123
1542883313820833792,-0.0231822356582,0.0317090339959,-0.0285114850849,1.23301385498,9.01656345215,4.8793829834
1542883313826073152,-0.0245145484805,0.0359724350274,-0.0271791722625,1.33835872803,9.34217487793,5.37019432373
1542883313831553152,-0.022516079247,0.0271791722625,-0.0269127096981,0.775721337891,8.42519564209,4.50828172607
1542883313837358368,-0.0283782538027,0.0289111789316,-0.0319754965603,0.593762011719,8.43716665039,3.58411988525
1542883313840262528,-0.0243813171983,0.0250474736094,-0.0278453286737,1.19231242676,7.41963094482,4.21379492187
1542883313845584160,-0.0250474736094,0.0285114850849,-0.027978559956,1.63045133057,7.6375032959,4.41730206299
1542883313850701344,-0.0261133220047,0.0277120973915,-0.0303767230362,0.849941589355,8.99740983887,4.2544963501
1542883313855800032,-0.0254471674562,0.0275788661093,-0.0269127096981,1.05344873047,8.19056387939,4.53461794434
1542883313860961120,-0.0239816233516,0.0333078093827,-0.0293108727783,1.77170922852,8.37012900391,5.2217538208
1542883313866055904,-0.0281117912382,0.0254471674562,-0.0302434917539,1.30005150146,8.2264769043,4.67108743896
1542883313871144672,-0.0270459409803,0.0385038293898,-0.0326416529715,1.09175595703,8.94952580566,4.77164390869
1542883313876349632,-0.0291776414961,0.024248085916,-0.0305099543184,1.1540052002,8.19056387939,4.98472785645
1542883313881586208,-0.0262465532869,0.0355727411807,-0.0305099543184,1.16837041016,9.59835445557,5.00388146973
1542883313886877056,-0.0246477797627,0.0181194487959,-0.0326416529715,0.905008227539,7.59440766602,4.19464130859
1542883313891974656,-0.0263797845691,0.0339739657938,-0.0278453286737,0.787692346191,8.76996068115,3.98873996582
1542883313897042848,-0.0271791722625,0.0270459409803,-0.032908115536,0.905008227539,8.77235488281,4.38378323975
1542883313899924320,-0.0277120973915,0.0258468594402,-0.0285114850849,1.25456166992,8.13310303955,4.00549937744
1542883313905037216,-0.025713628158,0.0315758027136,-0.0325084216893,0.629675036621,8.35576379395,4.56813676758
1542883313912356320,-0.0265130158514,0.0214502289891,-0.0301102604717,1.01274730225,8.99740983887,4.42209046631
1542883313915252576,-0.0250474736094,0.0345068909228,-0.0289111789316,1.01035310059,10.0221281494,5.09964953613
1542883313920340224,-0.025713628158,0.0229157730937,-0.0299770291895,1.2018892334,8.98543883057,5.47553919678
1542883313925461632,-0.0267794784158,0.0309096481651,-0.0290444102138,1.38863696289,8.8633345459,4.52264693604
1542883313930704736,-0.0271791722625,0.020784072578,-0.0315758027136,0.45968671875,9.2535894165,4.0198645874
1542883313935771488,-0.0270459409803,0.0341071970761,-0.0305099543184,1.47961662598,8.24084211426,4.75249029541
1542883313940906688,-0.027978559956,0.0286447163671,-0.0307764168829,1.02711251221,9.84974562988,4.76685550537
1542883313946091584,-0.0262465532869,0.027445634827,-0.0317090339959,0.823605371094,8.21929429932,4.10126744385
1542883313951183136,-0.0262465532869,0.0337075032294,-0.0281117912382,1.24498486328,8.77953748779,4.5250411377
1542883313956320736,-0.0275788661093,0.0235819295049,-0.0306431856006,0.885854614258,9.11472572021,4.75488449707
1542883313961421568,-0.0277120973915,0.0345068909228,-0.027978559956,1.18273562012,8.36294639893,4.41490786133
1542883313966509792,-0.0295773353428,0.0239816233516,-0.0303767230362,0.356736047363,8.27914934082,3.74692559814
1542883313971624320,-0.0286447163671,0.0302434917539,-0.029710566625,0.486022937012,9.53131680908,4.53940634766
1542883313976769344,-0.0291776414961,0.024781011045,-0.0333078093827,0.684741674805,8.80347950439,5.37019432373
1542883313981945152,-0.0281117912382,0.0362388975918,-0.0321087278426,1.44130939941,8.37491740723,4.47955130615
1542883313987221984,-0.0273124035448,0.0203843787313,-0.0338407345116,0.60812722168,9.40202991943,4.41730206299
1542883313990278784,-0.0286447163671,0.0337075032294,-0.0301102604717,1.50116444092,8.97586202393,5.1978118042
1542883313995407456,-0.0273124035448,0.0218499228358,-0.0303767230362,1.41257897949,8.16662186279,4.49152231445
1542883314000528384,-0.0325084216893,0.0254471674562,-0.0321087278426,0.749385119629,9.43554874268,4.16351668701
1542883314005648256,-0.0223828479648,0.0246477797627,-0.0314425714314,1.13006318359,9.74918916016,5.29357987061
1542883314010815840,-0.0317090339959,0.0283782538027,-0.0298437979072,1.74297880859,8.8992475708,5.48990440674
1542883314015947264,-0.0301102604717,0.0241148546338,-0.0327748842537,0.703895288086,9.28950244141,4.6327802124
1542883314021026080,-0.0271791722625,0.0214502289891,-0.0345068909228,0.31364041748,10.285490332,4.42687886963
1542883314026127712,-0.0289111789316,0.0334410406649,-0.0295773353428,1.70467158203,8.45871446533,5.10683214111
1542883314031498432,-0.0267794784158,0.0235819295049,-0.0318422652781,0.849941589355,10.2735193237,4.54180054932
1542883314036997216,-0.0302434917539,0.0266462471336,-0.0311761107296,0.421379492187,8.87291135254,4.22337172852
1542883314040082496,-0.0262465532869,0.0354395098984,-0.0311761107296,1.72382519531,8.53772312012,4.51785853271
1542883314045351072,-0.0335742719471,0.0233154669404,-0.032908115536,-0.0143652099609,10.1131078125,4.14436307373
1542883314051291008,-0.0289111789316,0.027445634827,-0.0338407345116,1.38863696289,9.2535894165,4.50588752441
1542883314056430304,-0.0305099543184,0.0343736596406,-0.0331745781004,1.67833536377,7.81706842041,4.2664673584
1542883314061580960,-0.0325084216893,0.0181194487959,-0.0355727411807,0.77093293457,8.92558378906,3.20104761963
1542883314066728032,-0.0277120973915,0.0374379791319,-0.0325084216893,1.33596452637,9.53371101074,5.269637854
1542883314072051392,-0.0331745781004,0.0218499228358,-0.0334410406649,1.78846864014,7.9918451416,4.56574256592
1542883314075598944,-0.0283782538027,0.034640122205,-0.0354395098984,1.24259066162,8.17619866943,4.48433970947
1542883314082718144,-0.0303767230362,0.0231822356582,-0.0341071970761,0.76135612793,7.82664522705,3.78283862305
1542883314085811488,-0.0322419591248,0.0233154669404,-0.0322419591248,1.76452662354,8.3102739624,4.08450803223
1542883314090986240,-0.0290444102138,0.0267794784158,-0.0326416529715,1.36708914795,8.98783303223,4.71178886719
1542883314096058848,-0.0301102604717,0.0234486982226,-0.032908115536,1.08696755371,8.3461869873,5.39174213867
1542883314101190080,-0.0269127096981,0.0291776414961,-0.0326416529715,1.74776721191,8.42758984375,4.88895979004
1542883314106269152,-0.0326416529715,0.0162542108446,-0.0327748842537,0.928950244141,8.04691177979,3.63439812012
1542883314111363488,-0.027978559956,0.032908115536,-0.0339739657938,0.641646044922,8.63349118652,5.08528432617
1542883314116467328,-0.027978559956,0.0302434917539,-0.0318422652781,1.04147772217,10.0101571411,5.15711037598
1542883314121527424,-0.0321087278426,0.0237151607871,-0.032908115536,1.34075292969,7.72608875732,4.77403811035
1542883314126623808,-0.034640122205,0.0301102604717,-0.0347733534873,1.09893856201,8.70771143799,3.64397492676
1542883314131985696,-0.0319754965603,0.0215834602714,-0.0363721288741,0.730231506348,8.91361278076,4.01268198242
1542883314137303136,-0.0310428794473,0.0325084216893,-0.0330413468182,1.86987149658,7.71651195068,4.86980617676
1542883314140244576,-0.0330413468182,0.0218499228358,-0.0347733534873,0.940921252441,8.55927093506,4.70221206055
1542883314145366624,-0.0339739657938,0.0266462471336,-0.0343736596406,1.25456166992,8.59757816162,4.60404979248
1542883314150443424,-0.0302434917539,0.0282450225204,-0.0337075032294,1.4604630127,8.13549724121,4.25689055176
1542883314155551328,-0.0317090339959,0.0266462471336,-0.0350398160517,1.34793553467,7.3430164917,4.48433970947
1542883314160638592,-0.0303767230362,0.0227825418115,-0.0374379791319,1.58735570068,8.89206496582,4.75967290039
1542883314165758368,-0.0318422652781,0.019318530336,-0.0337075032294,1.80043964844,8.58081875,4.14915147705
1542883314171062208,-0.0291776414961,0.0299770291895,-0.0330413468182,2.31040460205,7.81467421875,4.73333668213
1542883314176323552,-0.029710566625,0.0201179161668,-0.0337075032294,1.06541973877,8.85615194092,4.08929643555
1542883314181734272,-0.0281117912382,0.0269127096981,-0.0358392037451,1.8986019165,7.10359632568,4.8554409668
1542883314186857472,-0.029710566625,0.0229157730937,-0.0363721288741,1.32638771973,9.16739815674,4.5250411377
1542883314191891840,-0.0337075032294,0.0313093401492,-0.0361056663096,1.27850368652,7.80030900879,4.81713374023
1542883314197088608,-0.0290444102138,0.0238483920693,-0.036905054003,0.972045874023,8.71728824463,4.80995113525
1542883314202191168,-0.0318422652781,0.0219831541181,-0.0349065847695,0.701501086426,7.65186850586,4.36462962646
1542883314207344000,-0.0315758027136,0.0269127096981,-0.0361056663096,1.43652099609,9.09078370361,5.04218869629
1542883314213077760,-0.0335742719471,0.0221163854003,-0.0354395098984,1.04387192383,7.11796153564,4.43166727295
1542883314216063040,-0.0295773353428,0.020784072578,-0.0367718227208,1.18752402344,9.05487067871,4.01028778076
1542883314221242272,-0.027445634827,0.0267794784158,-0.0363721288741,0.612915625,9.05487067871,4.83389315186
1542883314226481312,-0.0326416529715,0.0315758027136,-0.0371715165675,0.689530078125,9.16500395508,5.2097828125
1542883314231935200,-0.0314425714314,0.0269127096981,-0.034640122205,0.593762011719,9.39484731445,4.49391651611
1542883314237307456,-0.0353062786162,0.0303767230362,-0.0363721288741,0.61052142334,9.47864437256,4.28562097168
1542883314240295168,-0.0285114850849,0.0222496166825,-0.0354395098984,0.682347473145,8.72686505127,4.70939466553
1542883314245744992,-0.032908115536,0.0235819295049,-0.0375712104142,1.46764561768,8.66461580811,3.50032282715
1542883314250960256,-0.0298437979072,0.0218499228358,-0.0361056663096,0.481234533691,9.78510218506,3.82354005127
1542883314256216224,-0.0286447163671,0.0266462471336,-0.034640122205,1.46525141602,10.1370498291,5.88734188232
1542883314261437952,-0.0317090339959,0.0259800907224,-0.0365053601563,1.8267758667,8.37491740723,4.98472785645
1542883314266794336,-0.0318422652781,0.0221163854003,-0.0387702919543,0.76375032959,9.560047229,3.99831677246
1542883314272082624,-0.0307764168829,0.0374379791319,-0.0371715165675,1.51313544922,8.80826790771,4.8434699585
1542883314277412128,-0.0293108727783,0.0206508412957,-0.034640122205,1.98000477295,7.57764825439,4.85783516846
1542883314280453248,-0.0306431856006,0.0345068909228,-0.0378376729786,1.74058460693,8.30069715576,4.290409375
1542883314285631168,-0.0314425714314,0.0191852990538,-0.039169985801,1.23061965332,8.63588538818,4.10126744385
1542883314290779872,-0.0326416529715,0.0263797845691,-0.0366385914385,2.37744224854,7.38850632324,5.30794508057
1542883314295909664,-0.032908115536,0.0201179161668,-0.0395696796477,1.21146604004,7.721300354,3.40216055908
1542883314301067008,-0.029710566625,0.0181194487959,-0.0425007641315,0.849941589355,8.02057556152,4.0198645874
1542883314306275552,-0.0294441040605,0.0270459409803,-0.0375712104142,1.51074124756,7.91283648682,5.52342322998
1542883314311583328,-0.0334410406649,0.0205176100135,-0.0395696796477,2.10210905762,7.86974085693,4.09647904053
1542883314316907744,-0.0331745781004,0.0263797845691,-0.041035220027,1.27610948486,7.87931766357,3.62242711182
1542883314322067744,-0.0325084216893,0.0186523739249,-0.0406355261803,0.524330163574,8.18338127441,4.47955130615
1542883314327228576,-0.027978559956,0.0345068909228,-0.0387702919543,2.05661922607,8.51378110352,4.71897147217
1542883314332412096,-0.0338407345116,0.0186523739249,-0.040502294898,0.440533105469,7.89368287354,4.23294853516
1542883314337688224,-0.0311761107296,0.0197182241827,-0.041035220027,0.450109912109,9.40442412109,4.01747038574
1542883314340561280,-0.0282450225204,0.0306431856006,-0.0383705981076,1.36948334961,8.62630858154,5.20260020752
1542883314345680128,-0.032908115536,0.0201179161668,-0.0436998456717,1.20667763672,8.68137521973,4.57531937256
1542883314350796800,-0.0285114850849,0.0282450225204,-0.0411684513092,0.76135612793,10.0197339478,5.36061751709
1542883314356056480,-0.0371715165675,0.0255803987384,-0.0413016825914,1.93451494141,8.82023891602,5.04218869629
1542883314361521792,-0.0287779476494,0.0214502289891,-0.0406355261803,0.778115539551,10.0412817627,4.64953962402
1542883314366612128,-0.0349065847695,0.0303767230362,-0.0401026010513,0.976834277344,9.04289967041,4.34547601318
1542883314371706944,-0.0319754965603,0.0190520677716,-0.0414349138737,0.699106884766,8.69095202637,4.34547601318
1542883314376825152,-0.0295773353428,0.0267794784158,-0.0371715165675,1.35032973633,8.71489404297,4.33589920654
1542883314382001216,-0.0322419591248,0.0183859113604,-0.040502294898,1.09415015869,7.77157858887,3.79002122803
1542883314387214880,-0.0286447163671,0.0241148546338,-0.0413016825914,1.04866032715,9.09557210693,4.55377155762
1542883314392368032,-0.0314425714314,0.0249142423272,-0.040502294898,1.35990654297,7.38850632324,4.68784685059
1542883314395220320,-0.0299770291895,0.0199846848845,-0.0431669205427,1.42694418945,7.42202514648,4.10605584717
1542883314400318560,-0.0337075032294,0.0314425714314,-0.0440995395184,1.61129771729,8.75080706787,4.8674119751
1542883314405464896,-0.0342404283583,0.0153215928003,-0.0436998456717,1.77410343018,7.84579884033,4.20182391357
1542883314412778752,-0.0338407345116,0.043300151825,-0.0389035232365,1.98000477295,6.44279666748,4.39096584473
1542883314415647968,-0.032375190407,0.0101255737245,-0.0471638590097,-0.739808312988,8.74123026123,2.59770880127
1542883314420717600,-0.0286447163671,0.032908115536,-0.0406355261803,1.08217915039,8.58081875,5.59524927979
1542883314425977184,-0.0283782538027,0.0231822356582,-0.0418346077204,2.01591779785,7.67581052246,5.8346694458
1542883314431158112,-0.0314425714314,0.0190520677716,-0.0399693697691,1.12766898193,8.03015236816,4.46518609619
1542883314436544128,-0.0293108727783,0.0322419591248,-0.0444992333651,1.08457335205,9.27034882812,3.9839515625
1542883314441706048,-0.0306431856006,0.0185191426426,-0.0434333831072,0.895431420898,8.65982740479,4.69742365723
1542883314446823072,-0.0269127096981,0.0417013764381,-0.0401026010513,1.8986019165,8.78193168945,4.52264693604
1542883314451916064,-0.0319754965603,0.00572894327343,-0.0446324646473,-0.840364782715,9.43076033936,2.93289703369
1542883314457059264,-0.0282450225204,0.0366385914385,-0.0411684513092,1.56341368408,10.1777512573,4.6088381958
1542883314462187488,-0.0311761107296,0.0178529862314,-0.042767226696,1.53707746582,7.55131203613,3.84269366455
1542883314467302976,-0.027445634827,0.0301102604717,-0.0438330769539,1.5322890625,9.17458076172,4.0318355957
1542883314472411008,-0.027445634827,0.0219831541181,-0.0417013764381,0.945709655762,8.95670841064,4.40772525635
1542883314475572000,-0.0254471674562,0.0267794784158,-0.0415681451559,1.65199914551,9.31105025635,5.64313331299
1542883314480694688,-0.0301102604717,0.0226493105292,-0.0438330769539,1.28089788818,7.84819304199,4.96078583984
1542883314486132448,-0.0301102604717,0.0154548240826,-0.0439663082361,1.10372696533,9.13866773682,3.48835181885
1542883314491254304,-0.0306431856006,0.0318422652781,-0.0426339954138,1.36230074463,8.24323631592,5.32949289551
1542883314496308704,-0.0286447163671,0.0187856052071,-0.0459647774696,1.27132108154,8.03494077148,4.29759197998
1542883314501415392,-0.0295773353428,0.0335742719471,-0.0463644713163,1.8028338501,7.54173522949,4.22816013184
1542883314506507936,-0.0299770291895,0.0241148546338,-0.0455650836229,1.15161099854,9.23204160156,3.83790526123
1542883314511591680,-0.0282450225204,0.0278453286737,-0.042767226696,1.08457335205,8.77714328613,4.51067592773
1542883314516699168,-0.0299770291895,0.0306431856006,-0.0422343015671,1.35272393799,8.57124194336,4.30477458496
1542883314521773504,-0.0261133220047,0.024248085916,-0.0434333831072,0.77332713623,9.34696328125,3.89297189941
1542883314526880064,-0.0303767230362,0.0271791722625,-0.0438330769539,1.33357032471,8.77474908447,5.04458289795
1542883314532371552,-0.0298437979072,0.019318530336,-0.045032158494,1.37906015625,9.36851109619,5.03021768799
1542883314537551680,-0.0319754965603,0.0218499228358,-0.0464977025986,0.787692346191,8.88967076416,5.14274516602
1542883314540483104,-0.0327748842537,0.0267794784158,-0.0462312400341,1.13485158691,8.43237824707,5.09725533447
1542883314545597152,-0.0281117912382,0.0229157730937,-0.0458315461874,1.35990654297,8.3102739624,4.96078583984
1542883314550679936,-0.0307764168829,0.0263797845691,-0.0447656959295,1.73100780029,7.78354959717,5.32470449219
1542883314555949088,-0.0301102604717,0.0251807048917,-0.0462312400341,1.44849200439,7.84340463867,4.20661231689
1542883314561578848,-0.0322419591248,0.0255803987384,-0.0413016825914,1.31681091309,7.21612380371,4.09887324219
1542883314566688320,-0.0262465532869,0.0231822356582,-0.0423675328493,1.42694418945,8.95192000732,3.96240374756
1542883314571797920,-0.0302434917539,0.019851455465,-0.042767226696,1.41257897949,7.36456430664,4.60644399414
1542883314576910368,-0.0266462471336,0.0309096481651,-0.0439663082361,1.61369191895,8.60715496826,4.46997449951
1542883314583080352,-0.0310428794473,0.0210505351424,-0.0468973964453,1.77649763184,7.59680186768,3.92649072266
1542883314586046080,-0.0285114850849,0.0286447163671,-0.0452986210585,0.888248815918,8.69095202637,4.2185833252
1542883314591214080,-0.0273124035448,0.0270459409803,-0.0446324646473,0.600944616699,8.44913765869,4.39336004639
1542883314596337024,-0.0325084216893,0.0270459409803,-0.0456983149052,0.320823022461,9.74440075684,4.53222374268
1542883314601466400,-0.0281117912382,0.0267794784158,-0.047297090292,0.557848986816,9.72524714355,4.82671054687
1542883314606534048,-0.0334410406649,0.0203843787313,-0.0466309338808,0.691924279785,9.13866773682,5.18823499756
1542883314611695936,-0.0295773353428,0.025713628158,-0.0458315461874,0.689530078125,9.64623848877,4.80037432861
1542883314616958464,-0.0302434917539,0.0186523739249,-0.0478300154209,0.962469067383,8.45871446533,4.80995113525
1542883314622146656,-0.0301102604717,0.0254471674562,-0.0464977025986,1.84832368164,8.75320126953,4.88417138672
1542883314627358560,-0.0315758027136,0.017586523667,-0.046764165163,1.58256729736,8.03733497314,4.22576593018
1542883314632525024,-0.0301102604717,0.0270459409803,-0.0446324646473,2.24097275391,8.12113203125,4.14436307373
1542883314637728992,-0.0283782538027,0.020784072578,-0.0447656959295,1.82198746338,8.60715496826,4.42209046631
1542883314640595008,-0.0326416529715,0.0229157730937,-0.043300151825,1.57299049072,8.31745656738,4.74051928711
1542883314646128672,-0.0290444102138,0.0233154669404,-0.0460980087519,1.5442600708,8.58081875,5.20260020752
1542883314651276704,-0.0314425714314,0.0259800907224,-0.0483629405499,2.49236392822,7.50342800293,4.69502945557
1542883314656414016,-0.0281117912382,0.0306431856006,-0.0468973964453,1.52510645752,8.30787976074,4.21618912354
1542883314661572928,-0.0306431856006,0.0211837664247,-0.0474303215742,0.591367810059,7.78115539551,4.66390483398
1542883314666690848,-0.0287779476494,0.0290444102138,-0.0474303215742,1.99197578125,8.44674345703,5.29597407227
1542883314672191584,-0.0311761107296,0.0210505351424,-0.0487626343966,1.64242233887,8.08282480469,4.53461794434
1542883314677593280,-0.0319754965603,0.0273124035448,-0.0498284846544,0.979228479004,9.2057053833,4.52982954102
1542883314680742080,-0.0321087278426,0.0177197549492,-0.0471638590097,0.471657727051,8.81784471436,4.15393988037
1542883314686572704,-0.0318422652781,0.0341071970761,-0.0471638590097,1.49398183594,8.75798967285,4.48194550781
1542883314691919488,-0.0330413468182,0.0187856052071,-0.0492955595255,0.251391174316,8.99262143555,3.72058937988
1542883314697603552,-0.0301102604717,0.0269127096981,-0.046764165163,0.490811340332,8.38928261719,5.30555087891
1542883314700550208,-0.0315758027136,0.0231822356582,-0.0455650836229,1.61848032227,7.59680186768,4.82192214355
1542883314706049376,-0.0303767230362,0.020784072578,-0.0478300154209,1.47961662598,7.86734665527,4.13239206543
1542883314711173984,-0.0299770291895,0.0230490043759,-0.0456983149052,1.32159931641,8.78193168945,4.32153399658
1542883314716240832,-0.0270459409803,0.0209173038602,-0.0468973964453,1.56101948242,8.89685336914,5.29836827393
1542883314721311840,-0.0303767230362,0.0194517616183,-0.0451653897762,1.78607443848,8.41083043213,5.36301171875
1542883314726412288,-0.0309096481651,0.0129234297201,-0.0491623282433,0.577002600098,8.69813463135,3.80438643799
1542883314731690240,-0.0275788661093,0.0261133220047,-0.0468973964453,0.663193859863,9.51455739746,4.97275684814
1542883314736954176,-0.0334410406649,0.0283782538027,-0.0471638590097,0.782903942871,9.07881269531,5.13556256104
1542883314742334912,-0.0282450225204,0.0258468594402,-0.0480964779854,0.442927307129,8.17619866943,4.45082088623
1542883314747582080,-0.0347733534873,0.0233154669404,-0.0500949472189,0.845153186035,9.20809958496,3.07894333496
1542883314750472544,-0.0269127096981,0.0246477797627,-0.0498284846544,0.775721337891,9.81622680664,3.93127912598
1542883314755533824,-0.0306431856006,0.0241148546338,-0.0468973964453,1.2856862915,8.09000740967,4.81713374023
1542883314762990048,-0.0309096481651,0.0177197549492,-0.0510275661945,1.42215578613,7.77397279053,4.16351668701
1542883314765992256,-0.0291776414961,0.0167871359736,-0.0455650836229,1.03908352051,9.29429084473,4.35744702148
1542883314771226816,-0.0281117912382,0.0219831541181,-0.046764165163,1.8028338501,8.44674345703,5.76523759766
1542883314776633408,-0.0253139361739,0.024248085916,-0.0487626343966,1.95845695801,8.5209637085,5.67186373291
1542883314782140928,-0.0343736596406,0.0146554363891,-0.0488958656788,1.07978494873,8.56405933838,4.02944139404
1542883314787326048,-0.0287779476494,0.0269127096981,-0.0470306277275,0.828393774414,9.43554874268,4.10366164551
1542883314792447680,-0.0333078093827,0.0186523739249,-0.0488958656788,0.663193859863,9.24640681152,4.47476290283
1542883314797607456,-0.0270459409803,0.0235819295049,-0.0486294031143,1.50116444092,8.83460412598,4.69981785889
1542883314803130336,-0.0315758027136,0.0185191426426,-0.0474303215742,1.06541973877,8.93994899902,4.17788189697
1542883314806014112,-0.0309096481651,0.0213169977069,-0.0487626343966,1.60650931396,8.78672009277,4.44124407959
1542883314811114624,-0.0277120973915,0.0186523739249,-0.0471638590097,1.70945998535,9.2416184082,4.57771357422
1542883314816208384,-0.032375190407,0.0178529862314,-0.0503614097834,1.35032973633,8.2264769043,4.19224710693
1542883314821286528,-0.0278453286737,0.0187856052071,-0.0479632467031,1.14921679688,8.12592043457,4.56334836426
1542883314826439392,-0.0306431856006,0.0258468594402,-0.0464977025986,0.940921252441,8.22168850098,4.48912811279
1542883314831720512,-0.0271791722625,0.0221163854003,-0.0498284846544,2.08056124268,8.48265648193,4.50828172607
1542883314836892608,-0.0321087278426,0.019851455465,-0.0498284846544,0.533906970215,7.54652363281,4.41251365967
1542883314842130304,-0.027445634827,0.0289111789316,-0.049029096961,1.61608612061,8.6287027832,4.903325
1542883314847434912,-0.0302434917539,0.0159877482802,-0.0480964779854,1.38145435791,8.14267984619,4.54180054932
1542883314852592448,-0.0285114850849,0.024781011045,-0.0483629405499,1.472434021,8.10437261963,4.03901820068
1542883314857701664,-0.0271791722625,0.00985911209136,-0.0502281785011,0.950498059082,8.61433757324,4.30477458496
1542883314862818464,-0.0273124035448,0.0310428794473,-0.0496952533722,1.52750065918,9.5241342041,5.20260020752
1542883314865706720,-0.0298437979072,0.0142557425424,-0.0498284846544,0.713472094727,8.24802471924,3.91930811768
1542883314870796384,-0.0319754965603,0.0283782538027,-0.0476967841387,0.572214196777,8.87291135254,3.84748206787
1542883314875924288,-0.0293108727783,0.0129234297201,-0.0487626343966,0.792480749512,8.65025059814,3.97676895752
1542883314881111872,-0.0291776414961,0.0313093401492,-0.045032158494,1.86747729492,7.34062229004,4.47955130615
1542883314886410176,-0.0299770291895,0.013989279978,-0.0492955595255,1.19470662842,8.03015236816,3.84029946289
1542883314891645792,-0.0333078093827,0.0217166915536,-0.0482297092676,1.10372696533,8.12831463623,4.5729251709
1542883314896757952,-0.0278453286737,0.0235819295049,-0.0488958656788,1.8746598999,7.0485296875,4.53222374268
1542883314901857120,-0.0285114850849,0.0119908116758,-0.0502281785011,0.428562097168,9.30626185303,3.99831677246
1542883314906958784,-0.025713628158,0.0190520677716,-0.04956202209,1.75255561523,8.40125362549,5.51145222168
1542883314912067616,-0.0299770291895,0.017053598538,-0.0502281785011,1.03190091553,8.6287027832,5.36301171875
1542883314917237504,-0.0317090339959,0.0215834602714,-0.0498284846544,1.28329208984,8.76517227783,5.02782348633
1542883314922462240,-0.0317090339959,0.0143889738247,-0.049029096961,0.833182177734,9.07163009033,4.19224710693
1542883314927835104,-0.0281117912382,0.0234486982226,-0.0499617159367,0.701501086426,8.96389101563,4.0078935791
1542883314930991648,-0.0282450225204,0.0195849929005,-0.0510275661945,0.316034619141,9.57920084229,4.54419475098
1542883314936200736,-0.0289111789316,0.0226493105292,-0.049029096961,1.48919343262,7.86495245361,4.92247861328
1542883314941468064,-0.0305099543184,0.013456354849,-0.0507611036301,1.56101948242,8.90164177246,3.83072265625
1542883314946689856,-0.027978559956,0.020784072578,-0.0536921881139,0.902614025879,8.69574042969,4.20421811523
1542883314951921472,-0.0293108727783,0.0150551302359,-0.0507611036301,1.55144267578,7.39808312988,5.03500609131
1542883314957138432,-0.0330413468182,0.0181194487959,-0.0504946410656,0.984016882324,8.51138690186,4.44603248291
1542883314962251840,-0.0303767230362,0.0147886676714,-0.0515604875982,1.88902510986,7.84101043701,4.14196887207
1542883314967379776,-0.0303767230362,0.0254471674562,-0.0480964779854,0.945709655762,8.33182177734,4.8913539917
1542883314972480704,-0.0249142423272,0.0229157730937,-0.0498284846544,0.92416184082,8.8992475708,4.63517441406
1542883314977783936,-0.0285114850849,0.020251147449,-0.049029096961,0.509964953613,9.67975731201,5.07810172119
1542883314980674496,-0.0269127096981,0.0195849929005,-0.0487626343966,0.584185205078,9.64145008545,5.37258852539
1542883314988076448,-0.0354395098984,0.0119908116758,-0.0510275661945,0.61770402832,8.84178673096,4.24970794678
1542883314990991712,-0.0290444102138,0.019318530336,-0.0470306277275,0.476446130371,9.32302126465,4.66151063232
1542883314996078656,-0.0318422652781,0.00892649311572,-0.0491623282433,1.18273562012,8.2025348877,4.2544963501
1542883315001206336,-0.027978559956,0.0263797845691,-0.0464977025986,1.66636435547,7.83382783203,4.6208092041
1542883315006330752,-0.032375190407,0.00959264952689,-0.0524931065738,0.708683691406,8.29590875244,3.78762702637
1542883315011418272,-0.0290444102138,0.024248085916,-0.0500949472189,1.64481654053,8.03733497314,4.92966121826
1542883315016666848,-0.0275788661093,0.0147886676714,-0.0523598752916,1.49158763428,8.91361278076,4.72854827881
1542883315021874624,-0.032908115536,0.0179862175137,-0.0511607974768,0.828393774414,9.14824454346,4.15393988037
1542883315028970784,-0.0231822356582,0.0174532923847,-0.0499617159367,0.622492431641,10.0077629395,4.30477458496
1542883315031973344,-0.0291776414961,0.0199846848845,-0.0515604875982,0.667982263184,9.63666168213,4.92487281494
1542883315037417216,-0.0267794784158,0.0154548240826,-0.0502281785011,1.07978494873,8.99262143555,5.17865819092
1542883315042520576,-0.0319754965603,0.0153215928003,-0.0532924942672,0.471657727051,7.9200190918,4.06774862061
1542883315047618944,-0.0270459409803,0.0122572742403,-0.0527595691383,0.91697923584,7.55610043945,4.61123239746
1542883315052739104,-0.0303767230362,0.0213169977069,-0.0515604875982,1.39103116455,7.58483085937,4.40293685303
1542883315056248256,-0.032375190407,0.0145222051069,-0.0519601814449,1.18034141846,7.55131203613,3.7134067749
1542883315061484928,-0.0258468594402,0.0227825418115,-0.0510275661945,1.05584293213,9.42597193604,3.66073433838
1542883315066869152,-0.0295773353428,0.0117243491113,-0.0515604875982,0.469263525391,9.33738647461,4.52743533936
1542883315071952512,-0.0258468594402,0.0214502289891,-0.0522266440094,1.10851536865,11.0755768799,5.55933625488
1542883315077114016,-0.0326416529715,0.0119908116758,-0.0500949472189,0.691924279785,8.19535228271,5.34146390381
1542883315082543008,-0.027978559956,0.0151883615181,-0.0487626343966,1.37666595459,8.38928261719,4.59207878418
1542883315087805984,-0.0306431856006,0.0163874421269,-0.0527595691383,0.9193734375,8.59518395996,3.95761534424
1542883315090711776,-0.0295773353428,0.0123905055225,-0.0520934127271,0.809240161133,7.81946262207,4.38138903809
1542883315095863552,-0.0281117912382,0.0211837664247,-0.0536921881139,0.792480749512,9.27274302979,4.93444962158
1542883315100976000,-0.0315758027136,0.0111914239824,-0.0536921881139,1.05584293213,8.63588538818,4.9152960083
1542883315106046656,-0.0287779476494,0.022516079247,-0.0518269501626,2.00634099121,8.80587370605,5.35343491211
1542883315111150080,-0.0349065847695,0.0123905055225,-0.0543583445251,1.10612116699,8.59757816162,4.35265861816
1542883315116242016,-0.0271791722625,0.0167871359736,-0.0510275661945,0.952892260742,10.0508585693,4.20182391357
1542883315121331712,-0.0286447163671,0.0194517616183,-0.0527595691383,1.32878192139,9.81383260498,4.69024105225
1542883315126451744,-0.0311761107296,0.00599540583789,-0.0524931065738,0.792480749512,10.1107136108,4.37181223145
1542883315131685536,-0.027978559956,0.0213169977069,-0.0536921881139,1.03190091553,9.29429084473,5.32470449219
1542883315137217888,-0.0325084216893,0.00213169981726,-0.0538254193962,0.29927520752,7.59440766602,4.52264693604
1542883315142336032,-0.0298437979072,0.0203843787313,-0.0515604875982,1.36230074463,7.67820472412,4.70700046387
1542883315147456544,-0.032375190407,0.00746094947681,-0.0564900450408,0.248996972656,7.97269152832,3.74213719482
1542883315152591424,-0.0291776414961,0.0227825418115,-0.0539586506784,1.64242233887,8.06845959473,4.63996281738
1542883315157690560,-0.035173047334,0.0214502289891,-0.0530260317028,0.778115539551,9.48582697754,3.6176387085
1542883315162769568,-0.0286447163671,0.012124042958,-0.0538254193962,0.60812722168,8.98065042725,4.38857164307
1542883315167879808,-0.0330413468182,0.0210505351424,-0.0527595691383,1.05344873047,8.99501563721,4.37420643311
1542883315172989664,-0.0290444102138,0.000399693730287,-0.0558238886297,0.474051928711,9.23683000488,4.49391651611
1542883315176052352,-0.0251807048917,0.0267794784158,-0.0532924942672,1.66397015381,8.78672009277,6.21534750977
1542883315181230720,-0.0353062786162,0.0027978559956,-0.0538254193962,1.52271225586,7.53215842285,4.85783516846
1542883315186457984,-0.0295773353428,0.0218499228358,-0.053159262985,1.46285721436,7.82903942871,4.11323845215
1542883315191616640,-0.0313093401492,0.00572894327343,-0.0555574260652,0.91458503418,9.1697923584,4.16351668701
1542883315196724448,-0.0278453286737,0.0150551302359,-0.0519601814449,1.60890351563,8.17380446777,6.01662877197
1542883315201813280,-0.0327748842537,0.0141225112602,-0.0522266440094,1.14682259521,8.49223328857,3.81396324463
1542883315206960320,-0.0281117912382,0.0107917301357,-0.0540918819606,-0.0263362182617,9.560047229,3.96240374756
1542883315212101472,-0.0293108727783,0.0130566610023,-0.0516937188804,1.19470662842,9.75637176514,5.09246693115
1542883315217544384,-0.0293108727783,0.0102588050067,-0.0520934127271,1.4844050293,7.51300480957,5.07091911621
1542883315222671680,-0.0265130158514,0.00972588080913,-0.0540918819606,1.2138602417,8.8633345459,3.93367332764
1542883315227846368,-0.0306431856006,0.0063950996846,-0.055424194783,1.02950671387,8.27914934082,4.51546433105
1542883315233261888,-0.0305099543184,0.0138560486957,-0.0532924942672,2.43729729004,7.94156690674,5.50666381836
1542883315237633920,-0.0302434917539,0.0125237368047,-0.0547580383718,1.66157595215,7.91283648682,4.86022937012
1542883315242760128,-0.0287779476494,0.00839356798679,-0.0559571199119,0.646434448242,7.77876119385,3.50750543213
1542883315247909312,-0.0286447163671,0.0171868298203,-0.0560903511941,1.12048637695,8.96628521729,4.2425253418
1542883315253002112,-0.0285114850849,0.0111914239824,-0.0540918819606,1.15639940186,8.49941589355,4.80037432861
1542883315255857792,-0.027978559956,0.0141225112602,-0.0523598752916,0.62009822998,8.69095202637,4.76685550537
1542883315263208640,-0.0310428794473,0.0063950996846,-0.0562235824764,0.541089575195,8.02296976318,3.93127912598
1542883315266084256,-0.0299770291895,0.00866003055125,-0.0550245009363,1.27850368652,8.12113203125,4.53461794434
1542883315271141280,-0.0305099543184,0.0169203672558,-0.0534257255495,1.4604630127,8.30309135742,4.8793829834
1542883315276234144,-0.0298437979072,0.00452986219898,-0.0543583445251,1.19470662842,7.59680186768,3.81635744629
1542883315281459424,-0.0282450225204,0.0119908116758,-0.057689126581,1.12048637695,9.13148513184,4.34787021484
1542883315286681248,-0.0261133220047,0.0129234297201,-0.0572894327343,1.37906015625,8.97107362061,5.61200869141
1542883315292008320,-0.0298437979072,0.0107917301357,-0.0534257255495,1.50595284424,8.58081875,5.39892474365
1542883315297121504,-0.0310428794473,0.0131898922846,-0.0551577322185,0.368707055664,9.60553706055,4.38138903809
1542883315302202752,-0.0289111789316,0.00346401217394,-0.0546248070896,0.885854614258,9.17697496338,4.90093079834
1542883315307345536,-0.027978559956,0.0131898922846,-0.0534257255495,1.6041151123,8.77235488281,5.16429298096
1542883315312432480,-0.0291776414961,0.000799387460575,-0.0558238886297,1.30005150146,7.22091220703,3.75171400146
1542883315317522336,-0.0298437979072,0.00786064285785,-0.055424194783,1.24737906494,8.21211169434,3.59609089355
1542883315322605856,-0.0269127096981,0.00439663091674,-0.0574226640165,1.53468326416,8.48983908691,4.83868155518
1542883315327817056,-0.0291776414961,0.0149218989536,-0.0543583445251,1.97521636963,7.55610043945,4.90811340332
1542883315333048768,-0.0273124035448,0.00492955604568,-0.0587549768388,0.536301171875,8.69334622803,4.13239206543
1542883315338208864,-0.0285114850849,0.00866003055125,-0.057156201452,0.447715710449,9.06444748535,4.81713374023
1542883315341120576,-0.0306431856006,0.010392036289,-0.0543583445251,1.48201082764,8.78911429443,4.80755693359
1542883315346219392,-0.0303767230362,0.00452986219898,-0.0567565076053,0.62009822998,8.56645354004,4.39575424805
1542883315351342176,-0.0269127096981,0.00999234244227,-0.0547580383718,1.32399351807,8.45871446533,4.58250197754
1542883315356447552,-0.0271791722625,0.00253139343113,-0.053159262985,1.72861359863,7.7093293457,5.27921466064
1542883315361652640,-0.0287779476494,0.0122572742403,-0.0566232763231,1.86987149658,8.46110866699,4.62799180908
1542883315366764352,-0.0290444102138,0.00426339963451,-0.0572894327343,0.885854614258,7.82185682373,4.3023803833
1542883315371842048,-0.0295773353428,0.0111914239824,-0.0559571199119,1.41736738281,8.17380446777,4.40772525635
1542883315377075904,-0.0302434917539,0.0031975498423,-0.0560903511941,0.660799658203,8.20732329102,3.76607921143
1542883315382409504,-0.0235819295049,0.0165206734091,-0.0543583445251,1.04626612549,9.32302126465,4.38857164307
1542883315387616928,-0.0289111789316,-0.000399693730287,-0.0574226640165,0.208295544434,8.96389101563,4.46279189453
1542883315392789344,-0.0235819295049,0.0141225112602,-0.0516937188804,1.62087452393,8.76277807617,5.7508723877
1542883315397889856,-0.0311761107296,-0.00119908119086,-0.0567565076053,1.00317049561,7.32386287842,4.6686932373
1542883315403028448,-0.0263797845691,0.00679479306564,-0.0539586506784,1.5562310791,8.43477244873,4.2185833252
1542883315408120640,-0.0263797845691,0.0037304747384,-0.0559571199119,1.33117612305,7.63989749756,4.20900651855
1542883315413217728,-0.0299770291895,0.00133231235668,-0.0555574260652,1.1899182251,7.86974085693,4.043806604
1542883315416066560,-0.0271791722625,0.0106584988534,-0.0562235824764,0.636857641602,9.440337146,3.82354005127
1542883315421223712,-0.0258468594402,-0.00706125563011,-0.0591546706855,0.387860668945,9.39963571777,3.96719215088
1542883315426323072,-0.0259800907224,0.0141225112602,-0.054891269654,1.13006318359,8.78672009277,5.52102902832
1542883315431604544,-0.0310428794473,-0.00066615617834,-0.0590214394033,0.656011254883,7.16584556885,3.6535517334
1542883315436827968,-0.0263797845691,0.00972588080913,-0.0544915758073,1.12527478027,8.2743609375,4.17069929199
1542883315441973344,-0.0270459409803,0.0018652373692,-0.0560903511941,1.41018477783,7.72608875732,4.76924970703
1542883315447091872,-0.0267794784158,0.00959264952689,-0.0562235824764,1.96085115967,6.99825145264,4.38378323975
1542883315452254400,-0.0298437979072,-0.00213169981726,-0.0574226640165,0.225054956055,9.27753143311,4.20900651855
1542883315457368000,-0.0245145484805,0.00626186840236,-0.0555574260652,0.735019909668,9.86889924316,5.64073911133
1542883315462465472,-0.0267794784158,0.0133231235668,-0.0560903511941,1.4844050293,8.72925925293,5.60482608643
1542883315467586816,-0.0325084216893,0.00466309348121,-0.0595543645322,0.15322890625,8.25281312256,3.11725056152
1542883315472666496,-0.0227825418115,0.00839356798679,-0.0568897388875,0.785298144531,9.10514891357,3.84987626953
1542883315477991232,-0.0246477797627,0.0107917301357,-0.0544915758073,1.69509477539,8.25760152588,5.49948121338
1542883315483541856,-0.0273124035448,0.00546248070896,-0.0583552829921,1.44849200439,8.22887110596,4.2185833252
1542883315487135200,-0.0307764168829,0.00786064285785,-0.0588882081211,0.14844050293,8.57842454834,4.61841500244
1542883315492267968,-0.0267794784158,-0.00239816238172,-0.057689126581,1.04626612549,8.23605371094,4.62320340576
1542883315497655424,-0.0282450225204,0.00692802434787,-0.0556906573474,1.09893856201,9.10514891357,5.1738697876
1542883315502803392,-0.0269127096981,-0.00466309348121,-0.0568897388875,0.354341845703,9.32302126465,4.17788189697
1542883315507909248,-0.0266462471336,0.0018652373692,-0.0546248070896,1.36948334961,9.16739815674,5.33188709717
1542883315512986528,-0.0287779476494,0.0037304747384,-0.0544915758073,1.26653267822,8.86572874756,4.49870491943
1542883315518098656,-0.022516079247,0.00439663091674,-0.0563568137586,1.38384855957,8.14986245117,5.26484945068
1542883315523268896,-0.0283782538027,0.00679479306564,-0.057689126581,1.07978494873,7.4148425415,3.78523282471
1542883315526620928,-0.0263797845691,-0.000133231238578,-0.05942113325,0.519541760254,7.18978758545,3.82832845459
1542883315535332608,-0.027445634827,0.0113246552646,-0.0555574260652,1.18034141846,8.78193168945,4.67587584229
1542883315538265696,-0.0255803987384,-0.0027978559956,-0.055424194783,1.06063133545,8.64306799316,4.81473953857
1542883315541138176,-0.0285114850849,0.00746094947681,-0.0562235824764,0.854729992676,9.20091697998,4.76685550537
1542883315546251872,-0.0298437979072,-0.00413016835228,-0.0584885142744,-0.00718260498047,9.98142672119,3.85945307617
1542883315551373216,-0.0302434917539,0.00479632476345,-0.0583552829921,1.08936175537,8.02536396484,4.75249029541
1542883315556454624,-0.0301102604717,0.00945941824466,-0.0562235824764,1.07499654541,8.36294639893,4.50109912109
1542883315561571840,-0.0293108727783,0.00146554363891,-0.0600872896612,1.2018892334,7.9798741333,4.63517441406
1542883315566670752,-0.027978559956,0.0133231235668,-0.0550245009363,1.99197578125,7.6494743042,4.78122071533
1542883315571804928,-0.0267794784158,-0.000932618684601,-0.0570229701698,1.55383687744,8.35336959229,4.44842668457
1542883315577034752,-0.0271791722625,0.00799387414008,-0.0598208270967,1.1659762085,8.59997236328,4.68066424561
1542883315582267392,-0.0265130158514,-0.000266462477157,-0.057689126581,0.91219083252,9.19134017334,4.40772525635
1542883315587604000,-0.0285114850849,-0.00426339963451,-0.0563568137586,0.670376464844,9.80904420166,5.40610734863
1542883315592710976,-0.0265130158514,-0.0031975498423,-0.055424194783,1.35272393799,8.71968244629,5.85621726074
1542883315598090496,-0.027445634827,0.000266462477157,-0.0587549768388,1.1779472168,7.61595548096,4.86980617676
1542883315603308960,-0.0273124035448,0.0018652373692,-0.0551577322185,1.14203419189,7.94635531006,4.11323845215
1542883315606167872,-0.0266462471336,0.00572894327343,-0.0547580383718,1.30244570312,8.214505896,4.75488449707
1542883315613528832,-0.0253139361739,0.00426339963451,-0.0547580383718,1.86987149658,7.6734163208,4.95599743652
1542883315616410720,-0.0286447163671,0.00106584990863,-0.0559571199119,0.447715710449,9.05726488037,4.15154567871
1542883315621525184,-0.0290444102138,-0.00626186840236,-0.0572894327343,0.114921679688,8.33661018066,3.84987626953
1542883315626613760,-0.027445634827,-0.00173200608697,-0.0543583445251,1.2737152832,8.90643017578,4.25928475342
1542883315631899904,-0.0287779476494,-0.00146554363891,-0.0562235824764,1.02471831055,8.18338127441,4.38617744141
1542883315637078688,-0.0254471674562,0.00626186840236,-0.0567565076053,1.30723410645,8.32942757568,4.48433970947
1542883315642265024,-0.0326416529715,-0.000532924954314,-0.0563568137586,1.23061965332,7.38371791992,4.30477458496
1542883315647368320,-0.0231822356582,-0.0018652373692,-0.0587549768388,0.974440075684,9.72285294189,4.73812508545
1542883315652430720,-0.0266462471336,0.00839356798679,-0.0574226640165,1.22104284668,8.41083043213,6.13155045166
1542883315657537536,-0.0315758027136,-0.00586217455566,-0.0590214394033,0.778115539551,8.54011732178,4.32153399658
1542883315662639648,-0.0277120973915,0.0033307808917,-0.0568897388875,0.361524450684,9.69412252197,4.05338341064
1542883315667799712,-0.0251807048917,0.00119908119086,-0.0583552829921,1.35990654297,8.94473740234,5.00148726807
1542883315673033664,-0.0226493105292,0.00133231235668,-0.0556906573474,1.66636435547,8.98304462891,5.77002600098
1542883315678240640,-0.0314425714314,0.00479632476345,-0.0560903511941,1.84114107666,7.65665690918,5.03740029297
1542883315681264128,-0.0306431856006,-0.012656968087,-0.0560903511941,0.711077893066,7.68778153076,3.56496627197
1542883315688928448,-0.0271791722625,0.0037304747384,-0.0551577322185,1.20428343506,8.55927093506,4.96557424316
1542883315692346016,-0.0277120973915,-0.00439663091674,-0.0559571199119,0.825999572754,9.50258638916,4.75249029541
1542883315697596064,-0.0245145484805,0.00226493109949,-0.0546248070896,0.830787976074,9.89523546143,5.36540592041
1542883315702721824,-0.0294441040605,0.00133231235668,-0.0544915758073,0.553060583496,8.52335791016,4.58968458252
1542883315707827168,-0.0234486982226,-0.0101255737245,-0.057689126581,0.622492431641,8.68376942139,4.18985290527
1542883315712957344,-0.0307764168829,0.000133231238578,-0.0551577322185,0.861912597656,8.20014068604,4.99669886475
1542883315718186688,-0.0251807048917,-0.00612863712013,-0.0558238886297,1.29286889648,8.09240161133,4.21140072021
1542883315723258976,-0.029710566625,-0.00506278686225,-0.0558238886297,0.897825622559,8.08043060303,4.85783516846
1542883315728518784,-0.0271791722625,-0.00506278686225,-0.0580888204277,1.72143099365,8.39407102051,4.52264693604
1542883315731598688,-0.029710566625,-0.00386370602064,-0.0556906573474,1.05584293213,8.56645354004,4.38378323975
1542883315736746848,-0.0282450225204,-0.00239816238172,-0.0552909635007,0.577002600098,8.37252320557,3.51468803711
1542883315741868640,-0.0238483920693,-0.00386370602064,-0.0586217455566,0.356736047363,10.3190091553,4.3502644165
1542883315746983232,-0.0311761107296,-0.00106584990863,-0.053159262985,1.01514150391,8.85615194092,5.76044919434
1542883315752063296,-0.0271791722625,-0.00159877492115,-0.0560903511941,1.17315881348,8.18816967773,4.30716878662
1542883315757230304,-0.0305099543184,-0.00359724345617,-0.0568897388875,0.885854614258,8.46829127197,4.47476290283
1542883315762653024,-0.025713628158,0.00359724345617,-0.0535589568317,1.78128603516,8.33900438232,4.40054265137
1542883315767866784,-0.0303767230362,-0.00692802434787,-0.0542251132429,1.63763393555,7.32386287842,4.54419475098
1542883315772980064,-0.0263797845691,-0.00413016835228,-0.0555574260652,0.586579406738,9.73003554687,3.96719215088
1542883315778303488,-0.0271791722625,-0.00532924942672,-0.0562235824764,0.854729992676,9.2296473999,5.49708701172
1542883315781812096,-0.0255803987384,-0.00413016835228,-0.0532924942672,1.00077629395,8.85854614258,5.22654222412
1542883315787039840,-0.027445634827,-0.00066615617834,-0.053159262985,0.335188232422,9.193734375,4.19224710693
1542883315792171840,-0.0255803987384,-0.00652833050117,-0.0559571199119,0.232237561035,8.48505068359,3.96479794922
1542883315797369952,-0.0258468594402,0.00239816238172,-0.0524931065738,1.25216746826,7.96550892334,5.269637854
1542883315802461440,-0.029710566625,-0.00959264952689,-0.0568897388875,1.18512982178,8.2384479126,4.27125576172
1542883315807566304,-0.0511607974768,0.012656968087,-0.0790061280131,1.19231242676,8.28872614746,4.6686932373
1542883315812682912,-0.0262465532869,-0.0147886676714,-0.0559571199119,0.395043273926,8.82023891602,3.93127912598
1542883315817762784,-0.0235819295049,0.00066615617834,-0.0555574260652,1.11569797363,9.56722983398,5.39413634033
1542883315822969984,-0.0290444102138,-0.0105252675712,-0.0560903511941,1.07739074707,8.97586202393,4.23294853516
1542883315828459808,-0.0254471674562,-0.000932618684601,-0.0558238886297,1.03190091553,8.80108530273,3.64636912842
1542883315831852416,-0.0261133220047,-0.00652833050117,-0.0567565076053,0.536301171875,8.99262143555,3.98873996582
1542883315837257632,-0.027445634827,-0.00106584990863,-0.057156201452,1.28089788818,8.00621035156,5.05894810791
1542883315842422688,-0.0250474736094,-0.00293108727783,-0.0559571199119,1.03908352051,9.11951412354,5.1978118042
1542883315847526080,-0.0266462471336,-0.00199846853502,-0.0539586506784,1.2018892334,8.17141026611,5.43004936523
1542883315852797824,-0.0271791722625,-0.0066615617834,-0.0550245009363,0.92176763916,7.92959589844,4.66629903564
1542883315857900800,-0.0259800907224,-0.0027978559956,-0.0575558952987,1.03429511719,8.76996068115,3.42610257568
1542883315863043904,-0.0250474736094,-0.00945941824466,-0.0563568137586,0.167594116211,9.15542714844,4.02944139404
1542883315868150528,-0.025713628158,0.0031975498423,-0.0520934127271,1.48919343262,8.85854614258,4.54180054932
1542883315873264448,-0.0230490043759,-0.00839356798679,-0.0550245009363,0.363918652344,8.83460412598,4.64953962402
1542883315878396736,-0.0254471674562,-0.00266462471336,-0.0527595691383,1.83395847168,8.6167317749,5.09486113281
1542883315881502016,-0.0258468594402,-0.000399693730287,-0.0543583445251,1.81001645508,7.57285985107,4.01028778076
1542883315886984864,-0.0237151607871,-0.00866003055125,-0.0526263378561,1.30962830811,8.31506236572,4.36462962646
1542883315892170976,-0.0239816233516,0.000799387460575,-0.0514272563159,1.47722242432,9.27513723145,5.18105239258
1542883315897266464,-0.0246477797627,-0.00905972439796,-0.0511607974768,1.19231242676,8.20732329102,5.11162054443
1542883315902360192,-0.0271791722625,-0.00466309348121,-0.0540918819606,0.0694318481445,9.35175168457,4.41251365967
1542883315907445792,-0.0237151607871,-0.0137228174135,-0.055424194783,0.0215478149414,9.87368764648,4.27364996338
1542883315912531936,-0.0246477797627,0.00133231235668,-0.0535589568317,1.70945998535,7.88889447021,4.90093079834
1542883315917637088,-0.0271791722625,-0.00772741204128,-0.0560903511941,0.634463439941,8.38928261719,3.72058937988
1542883315922750336,-0.0271791722625,-0.00439663091674,-0.0547580383718,0.833182177734,8.24323631592,3.95282694092
1542883315927873984,-0.0235819295049,0.00852679926902,-0.053159262985,1.52510645752,8.947131604,5.10683214111
1542883315933337696,-0.0217166915536,-0.0037304747384,-0.0551577322185,1.44609780273,8.50420429687,5.37019432373
1542883315938911104,-0.0243813171983,0.00759418075904,-0.0522266440094,1.02471831055,8.20732329102,4.47955130615
1542883315941875776,-0.0277120973915,-0.0146554363891,-0.0566232763231,-0.131681091309,9.16260975342,3.16513459473
1542883315947012704,-0.0209173038602,0.0018652373692,-0.0519601814449,0.557848986816,9.37808790283,5.41089575195
1542883315952110880,-0.0221163854003,-0.00413016835228,-0.0555574260652,1.2617442749,9.71806453857,5.34385810547
1542883315957254336,-0.0250474736094,-0.00732771819457,-0.0563568137586,0.639251843262,8.31745656738,4.80037432861
1542883315962403424,-0.0265130158514,0.000532924954314,-0.0547580383718,0.845153186035,8.5688477417,4.39814844971
1542883315967523520,-0.022516079247,-0.00866003055125,-0.0536921881139,1.04147772217,8.3102739624,5.02782348633
1542883315972680096,-0.0233154669404,0.00932618696243,-0.0507611036301,1.87705410156,7.98705673828,4.98712205811
1542883315977912800,-0.0238483920693,-0.00892649311572,-0.0512940250337,0.248996972656,8.5927897583,2.77248552246
1542883315983105120,-0.0215834602714,0.0018652373692,-0.0511607974768,0.292092602539,10.0819831909,4.54419475098
1542883315988303232,-0.0227825418115,-0.0063950996846,-0.0539586506784,0.62009822998,9.55765302734,5.20499440918
1542883315993424352,-0.0269127096981,-0.00386370602064,-0.0519601814449,1.09893856201,7.85058724365,4.45321508789
1542883315998522432,-0.0219831541181,-0.0122572742403,-0.0558238886297,-0.0885854614258,9.31823286133,3.02387669678
1542883316001568992,-0.0179862175137,-0.00586217455566,-0.0514272563159,0.62009822998,9.34935748291,4.80995113525
1542883316006686400,-0.0266462471336,-0.000266462477157,-0.0547580383718,1.77649763184,7.12753834229,5.36301171875
1542883316011766720,-0.0249142423272,-0.00399693707004,-0.0544915758073,1.36230074463,8.0397291748,3.88578929443
1542883316016872640,-0.0231822356582,-0.00506278686225,-0.055424194783,1.5083470459,8.45632026367,4.10126744385
1542883316021968928,-0.0211837664247,0.00786064285785,-0.0511607974768,1.30483990479,9.43554874268,5.46596239014
1542883316027073984,-0.0241148546338,-0.00932618696243,-0.0535589568317,0.782903942871,9.22485899658,4.91290180664
1542883316032320768,-0.0253139361739,0.00532924942672,-0.0524931065738,0.428562097168,9.22485899658,3.81875164795
1542883316037583104,-0.0266462471336,-0.017586523667,-0.0563568137586,-0.548272180176,9.60793126221,3.34948812256
1542883316042755488,-0.0218499228358,0.0033307808917,-0.0540918819606,0.569819995117,9.48343277588,5.5521536499
1542883316047845152,-0.0227825418115,-0.00586217455566,-0.0535589568317,0.938527050781,7.90325968018,4.8913539917
1542883316052954112,-0.0290444102138,-0.00692802434787,-0.054891269654,0.438138903809,7.71890615234,3.89057769775
1542883316058077664,-0.0187856052071,0.00253139343113,-0.0508943349123,0.658405456543,8.72207664795,4.3263223999
1542883316063166304,-0.0230490043759,-0.00679479306564,-0.055424194783,1.27610948486,8.37252320557,4.55616575928
1542883316068256864,-0.0194517616183,0.00706125563011,-0.0514272563159,1.31920511475,8.77474908447,5.38455953369
1542883316073372864,-0.027978559956,-0.0135895861313,-0.0532924942672,0.536301171875,9.03332286377,3.62721551514
1542883316078476640,-0.0217166915536,-0.00119908119086,-0.0514272563159,0.830787976074,9.70369932861,4.94881483154
1542883316083861696,-0.0234486982226,-0.00919295568019,-0.0522266440094,1.16837041016,9.33499227295,3.90733710937
1542883316089063808,-0.0206508412957,-0.00439663091674,-0.0528928004205,0.948103857422,9.1697923584,3.97676895752
1542883316091946496,-0.0229157730937,-0.00612863712013,-0.0527595691383,0.031124621582,9.24880101318,3.81396324463
1542883316097043776,-0.0227825418115,-0.00413016835228,-0.0559571199119,1.34314713135,8.01099875488,4.95839163818
1542883316102145600,-0.0190520677716,-0.00586217455566,-0.0514272563159,1.2497732666,9.16739815674,4.89853659668
1542883316107217376,-0.0253139361739,-0.00146554363891,-0.0564900450408,1.2856862915,7.52018741455,4.18745870361
1542883316112410368,-0.0226493105292,-0.00892649311572,-0.0539586506784,0.644040246582,8.43716665039,3.25850845947
1542883316117518720,-0.019851455465,-0.000399693730287,-0.0535589568317,1.30244570312,9.39245311279,4.57531937256
1542883316122619584,-0.0233154669404,-0.00746094947681,-0.0540918819606,1.42454998779,9.56244143066,4.77164390869
1542883316128180544,-0.0239816233516,-0.0037304747384,-0.0514272563159,0.828393774414,8.76756647949,4.537012146
1542883316131645376,-0.0250474736094,-0.0129234297201,-0.0552909635007,0.241814367676,9.70609353027,3.79002122803
1542883316137009440,-0.0214502289891,-0.00759418075904,-0.0522266440094,0.866701000977,8.95192000732,5.67186373291
1542883316142148992,-0.0222496166825,0.00679479306564,-0.0532924942672,2.21224233398,7.25203682861,5.28400306396
1542883316147237120,-0.0183859113604,-0.013989279978,-0.0526263378561,0.794874951172,7.69256993408,3.67270534668
1542883316152331424,-0.0149218989536,0.0141225112602,-0.053159262985,1.93930334473,8.79150849609,4.41490786133
1542883316157446336,-0.0183859113604,-0.0153215928003,-0.054891269654,1.59693250732,8.07324799805,4.65911643066
1542883316162565472,-0.022516079247,0.00586217455566,-0.0491623282433,1.45806881104,7.9439611084,4.78122071533
1542883316168024800,-0.0218499228358,-0.0210505351424,-0.0543583445251,0.248996972656,9.29429084473,3.37343013916
1542883316173143840,-0.019318530336,-0.00213169981726,-0.0506278723478,0.878672009277,10.1322614258,5.57130726318
1542883316178231552,-0.0182526800781,0.000532924954314,-0.0504946410656,1.98000477295,7.72608875732,5.1978118042
1542883316184461248,-0.0203843787313,-0.0105252675712,-0.0538254193962,0.682347473145,8.25520732422,4.01507618408
1542883316187357536,-0.0194517616183,0.00133231235668,-0.0511607974768,1.06541973877,8.26478413086,4.75727869873
1542883316192425632,-0.0237151607871,-0.0135895861313,-0.0519601814449,1.19710083008,7.60398447266,4.38617744141
1542883316197582016,-0.0149218989536,0.00253139343113,-0.0510275661945,1.45328040771,7.88889447021,5.07331331787
1542883316202675200,-0.0217166915536,-0.0141225112602,-0.0547580383718,0.907402429199,7.63510909424,3.40455476074
1542883316207834048,-0.0143889738247,-0.00159877492115,-0.0515604875982,0.842758984375,8.96149681396,3.76607921143
1542883316212927616,-0.0145222051069,-0.00586217455566,-0.0500949472189,0.723048901367,10.3429511719,4.86501777344
1542883316218028384,-0.0209173038602,-0.00786064285785,-0.04956202209,0.91697923584,9.08120689697,4.89374819336
1542883316223254176,-0.0205176100135,-0.00532924942672,-0.0507611036301,0.433350500488,9.03811126709,3.94564433594
1542883316228661760,-0.0239816233516,-0.013989279978,-0.0547580383718,0.553060583496,8.45632026367,4.5609541626
1542883316233402880,-0.0117243491113,-0.00173200608697,-0.0500949472189,2.085349646,8.53772312012,6.09563742676
1542883316238730624,-0.0239816233516,-0.00612863712013,-0.0532924942672,0.945709655762,7.79791480713,4.75967290039
1542883316241627168,-0.0158545169979,-0.00679479306564,-0.0508943349123,0.984016882324,8.94234320068,4.3502644165
1542883316246686016,-0.0206508412957,-0.000133231238578,-0.0494287908077,1.2378022583,7.7332713623,4.8314989502
1542883316251834432,-0.0154548240826,-0.00426339963451,-0.0504946410656,1.2018892334,8.76277807617,4.17069929199
1542883316256962272,-0.017586523667,-0.012124042958,-0.0499617159367,-0.0837970581055,9.8545340332,4.61123239746
1542883316262049696,-0.0199846848845,-0.00359724345617,-0.046764165163,0.967257470703,9.27753143311,4.79798012695
1542883316267193376,-0.0189188364893,-0.0063950996846,-0.0491623282433,0.691924279785,9.79946739502,4.92008441162
1542883316272401664,-0.0233154669404,-0.00919295568019,-0.0488958656788,0.778115539551,7.87213505859,4.28801517334
1542883316277637440,-0.0163874421269,-0.0142557425424,-0.0504946410656,1.33835872803,8.75320126953,4.06296021729
1542883316286406272,-0.0209173038602,0.00173200608697,-0.0515604875982,1.86508309326,8.9231895874,4.36941802979
1542883316289344864,-0.0161209795624,-0.0141225112602,-0.0514272563159,0.476446130371,7.97747993164,4.3382934082
1542883316292285440,-0.0199846848845,-0.00532924942672,-0.0526263378561,0.871489404297,8.99501563721,4.34787021484
1542883316297643776,-0.017053598538,-0.00826033670455,-0.0510275661945,1.47003981934,9.37329949951,4.79558592529
1542883316302887872,-0.020784072578,-0.0105252675712,-0.0518269501626,0.981622680664,8.73644185791,4.85783516846
1542883316308146304,-0.0213169977069,0.000266462477157,-0.0519601814449,0.799663354492,9.18894597168,3.91930811768
1542883316313518336,-0.0174532923847,-0.0153215928003,-0.0487626343966,0.960074865723,9.30865605469,3.70622416992
1542883316318609472,-0.0186523739249,0.00786064285785,-0.0496952533722,1.94409174805,8.45871446533,5.66707532959
1542883316323695136,-0.019851455465,-0.0179862175137,-0.0515604875982,1.70227738037,8.07803640137,4.86022937012
1542883316328784544,-0.0210505351424,0.0027978559956,-0.0475635528564,1.57299049072,7.91283648682,4.70939466553
1542883316331774336,-0.0194517616183,-0.0197182241827,-0.0519601814449,0.878672009277,7.56088884277,3.88818349609
1542883316339148224,-0.0169203672558,0.00692802434787,-0.0494287908077,1.65678754883,8.84896933594,5.45399138184
1542883316342029312,-0.0186523739249,-0.0106584988534,-0.0491623282433,1.31202250977,8.16662186279,4.3502644165
1542883316347083360,-0.0157212857157,0.000932618684601,-0.049029096961,1.46525141602,8.20014068604,4.81952794189
1542883316352606144,-0.0187856052071,-0.00799387414008,-0.0516937188804,1.00317049561,9.41160672607,4.18506450195
1542883316357712704,-0.0205176100135,-0.00892649311572,-0.0502281785011,0.993593688965,8.84178673096,4.79798012695
1542883316362811904,-0.0181194487959,-0.00106584990863,-0.049029096961,1.5322890625,8.86812294922,4.41011945801
1542883316367954464,-0.0217166915536,-0.013456354849,-0.0508943349123,-0.107739074707,9.36611689453,4.52982954102
1542883316373091104,-0.0179862175137,-0.00266462471336,-0.0508943349123,1.31202250977,8.17859287109,5.32949289551
1542883316378447200,-0.0203843787313,-0.00706125563011,-0.0520934127271,1.65199914551,8.03015236816,5.02542928467
1542883316383692800,-0.0197182241827,-0.0063950996846,-0.0491623282433,1.46285721436,8.86572874756,4.32153399658
1542883316388830176,-0.0203843787313,-0.00932618696243,-0.0492955595255,1.77170922852,6.78037910156,4.5489831543
1542883316391774432,-0.0205176100135,-0.0063950996846,-0.0519601814449,1.38863696289,8.06845959473,4.18027609863
1542883316396893440,-0.0183859113604,-0.00866003055125,-0.049029096961,1.5203180542,8.19295808105,4.53222374268
1542883316402040800,-0.0186523739249,-0.00826033670455,-0.0491623282433,1.48919343262,8.36534060059,4.62559760742
1542883316407154496,-0.0191852990538,-0.00586217455566,-0.0500949472189,0.76853873291,8.49223328857,5.06852491455
1542883316412277056,-0.022516079247,-0.00852679926902,-0.0523598752916,0.864306799316,9.2176763916,3.76847341309
1542883316417341920,-0.0206508412957,-0.00879326183349,-0.0503614097834,0.593762011719,9.76116016846,4.69502945557
1542883316422996896,-0.0199846848845,-0.000799387460575,-0.0538254193962,0.897825622559,10.2735193237,5.68383474121
1542883316429604480,-0.0203843787313,-0.0114578865469,-0.0502281785011,0.565031591797,8.77235488281,4.99669886475
1542883316433066880,-0.020251147449,-0.00466309348121,-0.0486294031143,0.969651672363,9.17936916504,4.34308181152
1542883316438362880,-0.0197182241827,-0.00759418075904,-0.0486294031143,1.13245738525,8.36294639893,4.50828172607
1542883316443594976,-0.0181194487959,-0.00439663091674,-0.0478300154209,1.72143099365,7.61834968262,4.52982954102
1542883316448733760,-0.0186523739249,-0.00586217455566,-0.0494287908077,1.01274730225,8.0038161499,3.924096521
1542883316453854880,-0.0209173038602,-0.0153215928003,-0.04956202209,0.612915625,9.23443580322,4.16112248535
1542883316456718848,-0.0215834602714,0.0037304747384,-0.0471638590097,1.57299049072,8.46589707031,4.69742365723
1542883316464068832,-0.0211837664247,-0.0147886676714,-0.0496952533722,0.131681091309,9.90241806641,4.44363828125
1542883316466946720,-0.0223828479648,-0.00346401217394,-0.0507611036301,0.76375032959,9.20809958496,4.84586416016
1542883316472029024,-0.0241148546338,-0.00945941824466,-0.0500949472189,1.42933839111,9.34935748291,4.42448466797
1542883316477294688,-0.0233154669404,-0.00439663091674,-0.04956202209,0.689530078125,9.13148513184,4.58010777588
1542883316482543104,-0.0210505351424,-0.0107917301357,-0.0491623282433,1.2976572998,8.68616362305,4.44842668457
1542883316487977760,-0.0190520677716,-0.00879326183349,-0.0479632467031,1.12048637695,9.440337146,4.16351668701
1542883316493249504,-0.0191852990538,-0.00572894327343,-0.0460980087519,1.84114107666,7.10359632568,4.94402642822
1542883316498358944,-0.0210505351424,-0.0141225112602,-0.0503614097834,1.00317049561,9.31344445801,3.90015450439
1542883316503513792,-0.019851455465,-0.00386370602064,-0.0503614097834,0.725443103027,8.59039555664,5.56651885986
1542883316508633792,-0.0254471674562,-0.0105252675712,-0.049029096961,1.39581956787,7.63510909424,4.70700046387
1542883316513730784,-0.0218499228358,-0.0107917301357,-0.0507611036301,0.804451757813,8.42519564209,4.09408483887
1542883316518816096,-0.025713628158,-0.00546248070896,-0.0491623282433,0.955286462402,9.08599530029,4.29280357666
1542883316523911328,-0.0223828479648,-0.00626186840236,-0.0475635528564,0.995987890625,8.8513635376,3.81635744629
1542883316526858880,-0.0222496166825,-0.00852679926902,-0.0486294031143,0.282515795898,9.94790789795,3.78044442139
1542883316533697280,-0.0187856052071,-0.0107917301357,-0.0456983149052,0.545877978516,10.3956236084,4.39814844971
1542883316538846848,-0.0250474736094,-0.00506278686225,-0.0456983149052,0.976834277344,8.24563051758,4.9751510498
1542883316543963648,-0.0215834602714,-0.0101255737245,-0.0475635528564,0.756567724609,8.83460412598,4.15872828369
1542883316546860320,-0.0194517616183,-0.010392036289,-0.0494287908077,0.60812722168,7.79073220215,5.19302340088
1542883316551950720,-0.0285114850849,-0.00892649311572,-0.0480964779854,2.05422502441,8.08282480469,4.42448466797
1542883316557039456,-0.0230490043759,-0.0066615617834,-0.0488958656788,0.802057556152,8.75559547119,4.24731374512
1542883316562652000,-0.0241148546338,-0.00812710542232,-0.0482297092676,1.2976572998,8.16901606445,4.17069929199
1542883316567919008,-0.0218499228358,-0.00945941824466,-0.046764165163,0.787692346191,9.29429084473,4.24731374512
1542883316573138944,-0.0234486982226,-0.0102588050067,-0.046764165163,1.02471831055,8.32942757568,4.8554409668
1542883316578283904,-0.0227825418115,-0.00426339963451,-0.0456983149052,1.36948334961,9.78510218506,4.10605584717
1542883316583852096,-0.0223828479648,-0.0102588050067,-0.0464977025986,0.857124194336,9.01416925049,4.91290180664
1542883316589079264,-0.0241148546338,-0.0033307808917,-0.0470306277275,1.30723410645,8.5209637085,4.08211383057
1542883316591958208,-0.0234486982226,-0.00892649311572,-0.0459647774696,0.430956298828,9.33020386963,4.0557776123
1542883316597022304,-0.0261133220047,-0.00706125563011,-0.0483629405499,0.991199487305,8.06845959473,4.64235701904
1542883316602129696,-0.0214502289891,-0.00905972439796,-0.047297090292,1.52510645752,7.97029732666,4.65911643066
1542883316607237024,-0.0271791722625,-0.00772741204128,-0.0458315461874,1.57538469238,7.79312640381,3.86184727783
1542883316612334240,-0.0203843787313,-0.00945941824466,-0.0486294031143,1.19231242676,8.00142194824,4.40293685303
1542883316617452864,-0.0239816233516,-0.00546248070896,-0.0455650836229,1.61369191895,8.34858118896,4.79798012695
1542883316622544640,-0.0233154669404,-0.0102588050067,-0.0435666143894,1.78128603516,8.46110866699,4.74530769043
1542883316627718240,-0.0251807048917,-0.00826033670455,-0.0456983149052,1.28329208984,8.11155522461,4.49631071777
1542883316632958528,-0.0251807048917,-0.00293108727783,-0.047297090292,1.62566292725,8.43477244873,3.89297189941
1542883316638303648,-0.0245145484805,-0.00932618696243,-0.0444992333651,0.91458503418,8.947131604,4.15633408203
1542883316643520544,-0.0223828479648,0.000932618684601,-0.0454318523407,1.04866032715,10.2423947021,5.41089575195
1542883316648685280,-0.0250474736094,-0.00866003055125,-0.0446324646473,1.11330377197,8.51138690186,5.30794508057
1542883316653777600,-0.0265130158514,-0.00599540583789,-0.0451653897762,1.34554133301,9.30865605469,4.55616575928
1542883316658948352,-0.0266462471336,-0.00972588080913,-0.0460980087519,0.723048901367,9.30865605469,4.72615407715
1542883316664141952,-0.0241148546338,-0.00399693707004,-0.0438330769539,1.72382519531,8.81305631104,4.41251365967
1542883316666987072,-0.0243813171983,-0.00426339963451,-0.0463644713163,0.802057556152,8.07085379639,4.43166727295
1542883316672084992,-0.0265130158514,-0.00612863712013,-0.0468973964453,1.06063133545,8.80347950439,3.6415807251
1542883316677697888,-0.0249142423272,-0.000266462477157,-0.0444992333651,1.45567460937,7.12753834229,4.66629903564
1542883316683100960,-0.0266462471336,-0.00799387414008,-0.0456983149052,1.60172091064,7.91283648682,3.9360675293
1542883316688475168,-0.0226493105292,-0.00426339963451,-0.0466309338808,1.24498486328,8.35815799561,3.81875164795
1542883316693607360,-0.027978559956,-0.00719448691234,-0.0463644713163,1.64481654053,7.31668027344,4.69742365723
1542883316698683776,-0.0275788661093,-0.00466309348121,-0.0440995395184,1.73100780029,9.05487067871,4.25210214844
1542883316703819360,-0.0318422652781,-0.00932618696243,-0.0443660020828,0.694318481445,8.58800135498,5.1379567627
1542883316708912960,-0.0250474736094,-0.00852679926902,-0.0444992333651,1.10612116699,8.55208833008,4.71897147217
1542883316713995392,-0.0259800907224,-0.0138560486957,-0.0434333831072,0.244208569336,8.75559547119,5.4444145752
1542883316716872800,-0.0234486982226,0.00106584990863,-0.0421010702848,1.00077629395,9.31105025635,5.1978118042
1542883316721992800,-0.0239816233516,-0.0113246552646,-0.0431669205427,0.205901342773,8.28872614746,4.84586416016
1542883316727292032,-0.0265130158514,0.000133231238578,-0.0415681451559,0.945709655762,8.65503900146,4.39814844971
1542883316732496736,-0.0266462471336,-0.0063950996846,-0.0417013764381,0.861912597656,9.20331118164,4.03901820068
1542883316737746496,-0.0333078093827,-0.000399693730287,-0.0431669205427,0.756567724609,8.9231895874,4.76924970703
1542883316742990272,-0.027978559956,-0.00826033670455,-0.0423675328493,1.26892687988,9.62708487549,4.63756861572
1542883316748219232,-0.0295773353428,-0.00852679926902,-0.0415681451559,1.04387192383,7.51300480957,4.56334836426
1542883316753512608,-0.0234486982226,-0.00559571199119,-0.0442327708006,0.600944616699,9.20091697998,4.69024105225
1542883316758648704,-0.0278453286737,-0.00466309348121,-0.0431669205427,1.61848032227,8.42998404541,5.42286676025
1542883316763756160,-0.0281117912382,-0.00253139343113,-0.0411684513092,1.71664259033,8.06845959473,5.13316835937
1542883316768856320,-0.0313093401492,-0.0107917301357,-0.0414349138737,0.962469067383,8.5927897583,4.24731374512
1542883316773957632,-0.0291776414961,0.00759418075904,-0.0398361384869,1.23061965332,8.71728824463,4.0078935791
1542883316779063456,-0.0285114850849,-0.012124042958,-0.0446324646473,0.689530078125,7.75721337891,4.47955130615
1542883316782038784,-0.0285114850849,-0.0037304747384,-0.0417013764381,0.687135876465,8.84896933594,4.14915147705
1542883316789499968,-0.0291776414961,-0.0102588050067,-0.042767226696,0.126892687988,7.97508572998,4.13239206543
1542883316792390688,-0.0289111789316,-0.00452986219898,-0.0407687574625,0.708683691406,9.34935748291,4.46518609619
1542883316797485760,-0.0277120973915,-0.0063950996846,-0.0406355261803,1.04147772217,8.29112034912,4.68545264893
1542883316802620768,-0.0270459409803,-0.00679479306564,-0.0418346077204,1.14921679688,9.48103857422,4.46758029785
1542883316807703040,-0.0253139361739,-0.00426339963451,-0.0414349138737,0.77332713623,9.86411083984,5.02782348633
1542883316812897184,-0.0285114850849,-0.00306431856006,-0.0406355261803,1.69748897705,9.22725319824,4.87220037842
1542883316818015200,-0.0291776414961,-0.00399693707004,-0.0418346077204,0.988805285645,8.59518395996,4.3622354248
1542883316823074656,-0.0281117912382,-0.000932618684601,-0.0414349138737,1.45088620605,10.053252771,3.40934316406
1542883316828259648,-0.0289111789316,-0.00892649311572,-0.0403690636158,0.723048901367,8.26478413086,3.89776030273
1542883316833603360,-0.0266462471336,-0.00293108727783,-0.0395696796477,0.897825622559,9.51934580078,4.18027609863
1542883316838824544,-0.0303767230362,-0.0119908116758,-0.0415681451559,0.438138903809,8.28154354248,3.94564433594
1542883316843955744,-0.0261133220047,0.00173200608697,-0.0393032170832,1.14921679688,9.5720182373,5.38934793701
1542883316849041760,-0.0294441040605,-0.00852679926902,-0.0393032170832,1.38624276123,8.0277581665,4.50588752441
1542883316854299104,-0.0281117912382,-0.00239816238172,-0.0375712104142,1.06302553711,8.94234320068,4.49870491943
1542883316857191616,-0.027978559956,-0.00466309348121,-0.0395696796477,1.10851536865,8.66222160645,4.91050760498
1542883316864498208,-0.0289111789316,0.00133231235668,-0.0401026010513,2.22181914063,8.41561883545,4.93444962158
1542883316867454048,-0.0270459409803,-0.00866003055125,-0.0413016825914,0.905008227539,8.62630858154,4.11802685547
1542883316872564384,-0.0310428794473,-0.00426339963451,-0.0395696796477,1.19231242676,7.56567724609,4.12999786377
1542883316877889280,-0.0269127096981,-0.00719448691234,-0.0411684513092,1.05105452881,8.87291135254,4.55137735596
1542883316883357408,-0.0315758027136,-0.00133231235668,-0.0389035232365,1.28329208984,8.18098707275,4.75967290039
1542883316888632416,-0.0271791722625,-0.00945941824466,-0.0398361384869,0.495599743652,8.83220992432,4.29759197998
1542883316893757088,-0.0298437979072,0.00173200608697,-0.0373047478497,1.21864864502,8.94473740234,4.97754525146
1542883316898948256,-0.0281117912382,-0.0102588050067,-0.0401026010513,0.972045874023,8.63588538818,3.96958635254
1542883316904033280,-0.0275788661093,-0.000133231238578,-0.0371715165675,0.876277807617,9.33259807129,4.77643231201
1542883316909113568,-0.0293108727783,-0.00892649311572,-0.0394364483654,1.07499654541,9.11951412354,3.94325013428
1542883316914336576,-0.0271791722625,0.0,-0.0345068909228,1.1779472168,9.19852277832,4.89374819336
1542883316917296320,-0.0281117912382,-0.00612863712013,-0.0383705981076,0.823605371094,8.51378110352,3.91930811768
1542883316922521408,-0.0261133220047,-0.00972588080913,-0.0362388975918,1.12048637695,8.00860455322,4.10126744385
1542883316927729120,-0.0287779476494,-0.00066615617834,-0.0354395098984,1.25935007324,8.85375773926,4.86980617676
1542883316933022336,-0.0261133220047,-0.00852679926902,-0.0379709042609,1.68312376709,8.13310303955,4.14436307373
1542883316938284288,-0.0285114850849,0.00306431856006,-0.0338407345116,1.74537301025,8.07803640137,4.63517441406
1542883316943420448,-0.0299770291895,-0.0122572742403,-0.0374379791319,1.51792385254,8.58081875,3.25372005615
1542883316948484288,-0.0282450225204,0.00399693707004,-0.0343736596406,0.816422766113,8.25999572754,4.90093079834
1542883316953604064,-0.0315758027136,-0.0110581927001,-0.0382373668253,1.472434021,7.83143363037,4.34308181152
1542883316958714816,-0.025713628158,-0.00426339963451,-0.0350398160517,2.13083947754,8.17141026611,4.16351668701
1542883316963808992,-0.0295773353428,-0.00559571199119,-0.0363721288741,0.646434448242,8.20732329102,3.89057769775
1542883316969000448,-0.0286447163671,-0.00239816238172,-0.0357059724629,1.30244570312,7.74524237061,4.70700046387
1542883316974106912,-0.032908115536,-0.00266462471336,-0.0342404283583,1.42215578613,7.72369455566,3.78762702637
1542883316979347168,-0.0282450225204,-0.00559571199119,-0.0363721288741,1.10612116699,8.42519564209,3.9839515625
1542883316982445088,-0.0282450225204,-0.00506278686225,-0.0345068909228,1.47961662598,8.17380446777,4.9631800415
1542883316987940672,-0.0261133220047,-0.0063950996846,-0.0359724350274,1.51792385254,8.30309135742,4.6208092041
1542883316993067616,-0.0273124035448,-0.00572894327343,-0.035173047334,0.648828649902,9.02135185547,4.87220037842
1542883316998163104,-0.0293108727783,-0.00519601814449,-0.0362388975918,0.893037219238,8.17380446777,4.35744702148
1542883317003346688,-0.0262465532869,-0.00799387414008,-0.0334410406649,0.495599743652,8.41561883545,3.83790526123
